
# QPROP Version 1.22
# 
# APC 5x4E X-Prop                                                                 
# 
# T-motor F40                                                                     
#   0.82000E-01  Rmotor (Ohms)                  
#   0.70000      Io     (Amps)                  
#    1600.0      Kv     (rpm/Volt)              
# 
#   rho =  1.2250     kg/m^3
#   mu  = 0.17800E-04 kg/m-s
#   a   =  340.00     m/s   
# 
#  1         2        3          4          5         6            7         8       9        10        11        12          13        14        15      16          17           18      19
# 
#  V(m/s)    rpm      Dbeta      T(N)       Q(N-m)    Pshaft(W)    Volts     Amps    effmot   effprop   adv       CT          CP        DV(m/s)   eff     Pelec       Pprop        cl_avg  cd_avg
    1.000   500.0      0.000 -0.2248E-02  0.8613E-04  0.4510E-02   0.371    0.7144   0.0170  -0.4984   0.30077 -0.2621E-01  0.1581E-01  -0.1572  -0.0085  0.2651     -0.2248E-02  -0.1753  0.3696    
    3.000   500.0      0.000 -0.1674E-01  0.2765E-03  0.1448E-01   0.374    0.7463   0.0519  -3.4683   0.90230 -0.1951      0.5077E-01  -0.3841  -0.1800  0.2789     -0.5021E-01  -0.2382  0.9552    
    5.000   500.0      0.000 -0.5094E-01  0.5687E-03  0.2978E-01   0.378    0.7953   0.0991  -8.5523   1.50383 -0.5939      0.1044      -0.7064  -0.8478  0.3004     -0.2547      -0.1954   1.295    
    7.000   500.0      0.000 -0.1055      0.8460E-03  0.4430E-01   0.382    0.8417   0.1379 -16.6647   2.10536  -1.229      0.1553      -1.0495  -2.2986  0.3211     -0.7382      -0.1710   1.455    
    9.000   500.0      0.000 -0.1799      0.1091E-02  0.5710E-01   0.385    0.8827   0.1681 -28.3480   2.70689  -2.097      0.2002      -1.3961  -4.7645  0.3397      -1.619      -0.1559   1.541    
   11.000   500.0      0.000 -0.2739      0.1300E-02  0.6805E-01   0.388    0.9177   0.1912 -44.2851   3.30842  -3.194      0.2386      -1.7430  -8.4680  0.3559      -3.013      -0.1457   1.592    
   13.000   500.0      0.000 -0.3876      0.1473E-02  0.7711E-01   0.390    0.9468   0.2088 -65.3477   3.90995  -4.519      0.2704      -2.0894 -13.6427  0.3694      -5.039      -0.1383   1.626    
   15.000   500.0      0.000 -0.5208      0.1610E-02  0.8431E-01   0.392    0.9698   0.2218 -92.6631   4.51148  -6.072      0.2956      -2.4352 -20.5490  0.3802      -7.812      -0.1328   1.649    
   17.000   500.0      0.000 -0.6735      0.1712E-02  0.8965E-01   0.393    0.9869   0.2309-127.7156   5.11301  -7.852      0.3144      -2.7804 -29.4892  0.3883      -11.45      -0.1286   1.666    
   19.000   500.0      0.000 -0.8456      0.1779E-02  0.9314E-01   0.394    0.9981   0.2367-172.4998   5.71454  -9.859      0.3266      -3.1251 -40.8234  0.3936      -16.07      -0.1252   1.679    
   21.000   500.0      0.000  -1.037      0.1811E-02  0.9480E-01   0.395    1.0034   0.2393-229.7605   6.31607  -12.09      0.3324      -3.4694 -54.9891  0.3961      -21.78      -0.1224   1.689    

    1.000   1000.      0.000  0.1025E-01  0.3475E-03  0.3639E-01   0.687    0.7582   0.0699   0.2817   0.15038  0.2988E-01  0.1595E-01   0.5236   0.0197  0.5210      0.1025E-01   0.4910  0.1810    
    3.000   1000.      0.000 -0.1624E-01  0.2412E-03  0.2525E-01   0.686    0.7404   0.0497  -1.9291   0.45115 -0.4733E-01  0.1107E-01  -0.3719  -0.0960  0.5077     -0.4872E-01  -0.2855  0.3783    
    5.000   1000.      0.000 -0.4085E-01  0.6454E-03  0.6758E-01   0.691    0.8081   0.1210  -3.0222   0.75191 -0.1191      0.2962E-01  -0.5576  -0.3656  0.5586     -0.2043      -0.2531  0.7076    
    7.000   1000.      0.000 -0.8608E-01  0.1193E-02  0.1249       0.699    0.8999   0.1986  -4.8236   1.05268 -0.2509      0.5475E-01  -0.8432  -0.9582  0.6288     -0.6025      -0.2250  0.9713    
    9.000   1000.      0.000 -0.1520      0.1773E-02  0.1857       0.707    0.9971   0.2635  -7.3648   1.35344 -0.4429      0.8139E-01  -1.1632  -1.9406  0.7047      -1.368      -0.2038   1.151    
   11.000   1000.      0.000 -0.2381      0.2345E-02  0.2456       0.715    1.0929   0.3144 -10.6667   1.65421 -0.6941      0.1076      -1.4969  -3.3539  0.7810      -2.619      -0.1880   1.274    
   13.000   1000.      0.000 -0.3443      0.2892E-02  0.3029       0.722    1.1846   0.3540 -14.7793   1.95497  -1.004      0.1327      -1.8365  -5.2326  0.8554      -4.476      -0.1760   1.360    
   15.000   1000.      0.000 -0.4703      0.3408E-02  0.3569       0.729    1.2710   0.3850 -19.7676   2.25574  -1.371      0.1564      -2.1788  -7.6115  0.9269      -7.055      -0.1666   1.423    
   17.000   1000.      0.000 -0.6160      0.3890E-02  0.4074       0.736    1.3518   0.4095 -25.7077   2.55650  -1.795      0.1786      -2.5222 -10.5280  0.9947      -10.47      -0.1591   1.470    
   19.000   1000.      0.000 -0.7813      0.4337E-02  0.4542       0.742    1.4267   0.4290 -32.6865   2.85727  -2.277      0.1991      -2.8661 -14.0237   1.059      -14.84      -0.1530   1.507    
   21.000   1000.      0.000 -0.9662      0.4748E-02  0.4973       0.748    1.4956   0.4447 -40.8031   3.15804  -2.816      0.2180      -3.2102 -18.1452   1.118      -20.29      -0.1479   1.536    

    1.000   1500.      0.000  0.3397E-01  0.7517E-03  0.1181       1.005    0.8259   0.1422   0.2877   0.10026  0.4400E-01  0.1533E-01   1.3190   0.0409  0.8303      0.3397E-01   0.6980  0.1381    
    3.000   1500.      0.000 -0.1505E-01  0.2667E-03  0.4190E-01   0.999    0.7447   0.0563  -1.0779   0.30077 -0.1950E-01  0.5442E-02  -0.3430  -0.0607  0.7436     -0.4516E-01  -0.1753  0.1756    
    5.000   1500.      0.000 -0.3993E-01  0.4888E-03  0.7679E-01   1.002    0.7819   0.0980  -2.6003   0.50128 -0.5173E-01  0.9972E-02  -0.5443  -0.2549  0.7832     -0.1997      -0.2804  0.3786    
    7.000   1500.      0.000 -0.7547E-01  0.1099E-02  0.1726       1.010    0.8841   0.1933  -3.0602   0.70179 -0.9776E-01  0.2242E-01  -0.7331  -0.5916  0.8930     -0.5283      -0.2585  0.6082    
    9.000   1500.      0.000 -0.1315      0.1875E-02  0.2945       1.021    1.0141   0.2845  -4.0197   0.90230 -0.1704      0.3824E-01  -0.9969  -1.1436   1.035      -1.184      -0.2382  0.8100    
   11.000   1500.      0.000 -0.2083      0.2721E-02  0.4274       1.032    1.1558   0.3582  -5.3615   1.10281 -0.2698      0.5550E-01  -1.2967  -1.9203   1.193      -2.291      -0.2210  0.9697    
   13.000   1500.      0.000 -0.3056      0.3587E-02  0.5635       1.044    1.3010   0.4148  -7.0506   1.30332 -0.3959      0.7318E-01  -1.6152  -2.9244   1.359      -3.973      -0.2069   1.093    
   15.000   1500.      0.000 -0.4232      0.4449E-02  0.6988       1.056    1.4454   0.4578  -9.0844   1.50383 -0.5482      0.9075E-01  -1.9441  -4.1590   1.526      -6.348      -0.1954   1.188    
   17.000   1500.      0.000 -0.5609      0.5291E-02  0.8311       1.068    1.5865   0.4907 -11.4724   1.70434 -0.7265      0.1079      -2.2788  -5.6294   1.694      -9.535      -0.1858   1.263    
   19.000   1500.      0.000 -0.7184      0.6107E-02  0.9593       1.079    1.7232   0.5160 -14.2300   1.90485 -0.9307      0.1246      -2.6169  -7.3428   1.859      -13.65      -0.1778   1.322    
   21.000   1500.      0.000 -0.8958      0.6892E-02   1.083       1.090    1.8548   0.5357 -17.3758   2.10536  -1.160      0.1406      -2.9571  -9.3081   2.021      -18.81      -0.1710   1.370    

    1.000   2000.      0.000  0.6911E-01  0.1284E-02  0.2690       1.325    0.9152   0.2218   0.2569   0.07519  0.5036E-01  0.1474E-01   2.1476   0.0570   1.213      0.6911E-01   0.7955  0.1154    
    3.000   2000.      0.000  0.1141E-01  0.7782E-03  0.1630       1.318    0.8304   0.1489   0.2101   0.22557  0.8317E-02  0.8930E-02   0.2359   0.0313   1.095      0.3424E-01   0.1570  0.1191    
    5.000   2000.      0.000 -0.4692E-01  0.3138E-03  0.6573E-01   1.312    0.7526   0.0666  -3.5691   0.37596 -0.3419E-01  0.3601E-02  -0.6465  -0.2376  0.9872     -0.2346      -0.2924  0.2198    
    7.000   2000.      0.000 -0.7409E-01  0.8176E-03  0.1712       1.319    0.8370   0.1551  -3.0289   0.52634 -0.5399E-01  0.9382E-02  -0.7190  -0.4699   1.104     -0.5186      -0.2777  0.3781    
    9.000   2000.      0.000 -0.1205      0.1631E-02  0.3417       1.330    0.9733   0.2640  -3.1733   0.67672 -0.8778E-01  0.1872E-01  -0.9084  -0.8376   1.294      -1.084      -0.2612  0.5540    
   11.000   2000.      0.000 -0.1873      0.2624E-02  0.5496       1.343    1.1397   0.3590  -3.7483   0.82710 -0.1365      0.3011E-01  -1.1581  -1.3455   1.531      -2.060      -0.2454  0.7153    
   13.000   2000.      0.000 -0.2748      0.3714E-02  0.7779       1.358    1.3223   0.4331  -4.5926   0.97749 -0.2002      0.4262E-01  -1.4422  -1.9888   1.796      -3.572      -0.2314  0.8528    
   15.000   2000.      0.000 -0.3830      0.4850E-02   1.016       1.374    1.5127   0.4888  -5.6547   1.12787 -0.2791      0.5566E-01  -1.7470  -2.7637   2.079      -5.744      -0.2191  0.9668    
   17.000   2000.      0.000 -0.5116      0.6003E-02   1.257       1.390    1.7057   0.5303  -6.9178   1.27825 -0.3728      0.6888E-01  -2.0646  -3.6684   2.371      -8.697      -0.2086   1.061    
   19.000   2000.      0.000 -0.6605      0.7151E-02   1.498       1.406    1.8982   0.5613  -8.3784   1.42863 -0.4813      0.8206E-01  -2.3905  -4.7031   2.668      -12.55      -0.1994   1.138    
   21.000   2000.      0.000 -0.8295      0.8285E-02   1.735       1.421    2.0882   0.5847 -10.0383   1.57902 -0.6044      0.9507E-01  -2.7218  -5.8693   2.968      -17.42      -0.1916   1.202    

    1.000   2500.      0.000  0.1157      0.1942E-02  0.5084       1.647    1.0254   0.3011   0.2277   0.06015  0.5398E-01  0.1426E-01   2.9898   0.0686   1.688      0.1157       0.8519  0.1004    
    3.000   2500.      0.000  0.4955E-01  0.1428E-02  0.3739       1.640    0.9393   0.2428   0.3975   0.18046  0.2311E-01  0.1049E-01   0.9225   0.0965   1.540      0.1486       0.3603  0.9668E-01
    5.000   2500.      0.000 -0.3809E-01  0.3741E-03  0.9794E-01   1.625    0.7627   0.0790  -1.9443   0.30077 -0.1776E-01  0.2748E-02  -0.5177  -0.1536   1.239     -0.1904      -0.1753  0.1253    
    7.000   2500.      0.000 -0.8088E-01  0.4978E-03  0.1303       1.627    0.7834   0.1023  -4.3448   0.42107 -0.3772E-01  0.3656E-02  -0.7891  -0.4443   1.274     -0.5662      -0.2884  0.2421    
    9.000   2500.      0.000 -0.1186      0.1222E-02  0.3200       1.637    0.9048   0.2161  -3.3359   0.54138 -0.5532E-01  0.8977E-02  -0.8937  -0.7209   1.481      -1.068      -0.2761  0.3771    
   11.000   2500.      0.000 -0.1758      0.2239E-02  0.5861       1.651    1.0751   0.3303  -3.2990   0.66168 -0.8198E-01  0.1644E-01  -1.0831  -1.0896   1.775      -1.934      -0.2628  0.5195    
   13.000   2500.      0.000 -0.2533      0.3443E-02  0.9015       1.667    1.2769   0.4234  -3.6532   0.78199 -0.1181      0.2529E-01  -1.3231  -1.5469   2.129      -3.293      -0.2500  0.6533    
   15.000   2500.      0.000 -0.3515      0.4764E-02   1.247       1.685    1.4983   0.4940  -4.2274   0.90230 -0.1639      0.3499E-01  -1.5950  -2.0882   2.525      -5.273      -0.2382  0.7723    
   17.000   2500.      0.000 -0.4704      0.6153E-02   1.611       1.704    1.7310   0.5460  -4.9641   1.02260 -0.2194      0.4519E-01  -1.8880  -2.7105   2.950      -7.997      -0.2275  0.8756    
   19.000   2500.      0.000 -0.6099      0.7578E-02   1.984       1.724    1.9697   0.5842  -5.8409   1.14291 -0.2844      0.5565E-01  -2.1953  -3.4124   3.396      -11.59      -0.2180  0.9641    
   21.000   2500.      0.000 -0.7697      0.9015E-02   2.360       1.744    2.2105   0.6123  -6.8489   1.26321 -0.3590      0.6621E-01  -2.5123  -4.1936   3.855      -16.16      -0.2095   1.040    

    1.000   3000.      0.000  0.1739      0.2722E-02  0.8552       1.970    1.1561   0.3755   0.2033   0.05013  0.5631E-01  0.1388E-01   3.8384   0.0764   2.277      0.1739       0.8885  0.8968E-01
    3.000   3000.      0.000  0.9897E-01  0.2197E-02  0.6903       1.963    1.0682   0.3293   0.4301   0.15038  0.3205E-01  0.1121E-01   1.6643   0.1416   2.096      0.2969       0.4912  0.8389E-01
    5.000   3000.      0.000  0.1681E-02  0.1124E-02  0.3531       1.948    0.8883   0.2041   0.0238   0.25064  0.5443E-03  0.5733E-02   0.0216   0.0049   1.730      0.8403E-02   0.0415  0.9371E-01
    7.000   3000.      0.000 -0.9316E-01  0.1563E-03  0.4909E-01   1.935    0.7262   0.0349 -13.2847   0.35089 -0.3017E-01  0.7969E-03  -0.9178  -0.4642   1.405     -0.6521      -0.2903  0.1586    
    9.000   3000.      0.000 -0.1251      0.7622E-03  0.2395       1.943    0.8277   0.1489  -4.7012   0.45115 -0.4051E-01  0.3888E-02  -0.9453  -0.7001   1.608      -1.126      -0.2855  0.2598    
   11.000   3000.      0.000 -0.1734      0.1700E-02  0.5342       1.956    0.9849   0.2773  -3.5715   0.55140 -0.5617E-01  0.8672E-02  -1.0679  -0.9905   1.926      -1.908      -0.2750  0.3759    
   13.000   3000.      0.000 -0.2414      0.2919E-02  0.9170       1.973    1.1891   0.3910  -3.4216   0.65166 -0.7817E-01  0.1489E-01  -1.2573  -1.3378   2.345      -3.138      -0.2639  0.4956    
   15.000   3000.      0.000 -0.3296      0.4332E-02   1.361       1.992    1.4259   0.4792  -3.6329   0.75191 -0.1067      0.2209E-01  -1.4901  -1.7408   2.840      -4.944      -0.2531  0.6096    
   17.000   3000.      0.000 -0.4385      0.5876E-02   1.846       2.013    1.6846   0.5444  -4.0377   0.85217 -0.1420      0.2997E-01  -1.7525  -2.1980   3.391      -7.454      -0.2430  0.7139    
   19.000   3000.      0.000 -0.5680      0.7506E-02   2.358       2.036    1.9577   0.5918  -4.5766   0.95242 -0.1840      0.3828E-01  -2.0356  -2.7083   3.985      -10.79      -0.2336  0.8070    
   21.000   3000.      0.000 -0.7182      0.9189E-02   2.887       2.059    2.2396   0.6261  -5.2247   1.05268 -0.2326      0.4686E-01  -2.3335  -3.2713   4.610      -15.08      -0.2250  0.8894    

    1.000   3500.      0.000  0.2434      0.3622E-02   1.328       2.295    1.3069   0.4427   0.1833   0.04297  0.5791E-01  0.1357E-01   4.6894   0.0812   2.999      0.2434       0.9135  0.8149E-01
    3.000   3500.      0.000  0.1598      0.3085E-02   1.131       2.287    1.2169   0.4063   0.4239   0.12890  0.3802E-01  0.1156E-01   2.4402   0.1722   2.784      0.4794       0.5819  0.7533E-01
    5.000   3500.      0.000  0.5428E-01  0.2036E-02  0.7464       2.273    1.0412   0.3154   0.3636   0.21483  0.1291E-01  0.7630E-02   0.6564   0.1147   2.366      0.2714       0.2061  0.7926E-01
    7.000   3500.      0.000 -0.7109E-01  0.3821E-03  0.1401       2.250    0.7640   0.0815  -3.5530   0.30077 -0.1691E-01  0.1432E-02  -0.6883  -0.2895   1.719     -0.4976      -0.1754  0.1007    
    9.000   3500.      0.000 -0.1389      0.3223E-03  0.1181       2.249    0.7540   0.0697 -10.5863   0.38670 -0.3306E-01  0.1208E-02  -1.0570  -0.7373   1.696      -1.251      -0.2915  0.1835    
   11.000   3500.      0.000 -0.1795      0.1102E-02  0.4039       2.260    0.8846   0.2020  -4.8900   0.47263 -0.4272E-01  0.4129E-02  -1.1075  -0.9878   1.999      -1.975      -0.2833  0.2733    
   13.000   3500.      0.000 -0.2385      0.2250E-02  0.8245       2.276    1.0769   0.3364  -3.7609   0.55856 -0.5676E-01  0.8429E-02  -1.2417  -1.2653   2.451      -3.101      -0.2742  0.3747    
   15.000   3500.      0.000 -0.3172      0.3670E-02   1.345       2.295    1.3149   0.4457  -3.5370   0.64450 -0.7547E-01  0.1375E-01  -1.4309  -1.5764   3.018      -4.758      -0.2647  0.4779    
   17.000   3500.      0.000 -0.4161      0.5290E-02   1.939       2.318    1.5863   0.5274  -3.6487   0.73043 -0.9901E-01  0.1982E-01  -1.6583  -1.9242   3.676      -7.074      -0.2554  0.5771    
   19.000   3500.      0.000 -0.5356      0.7052E-02   2.585       2.342    1.8816   0.5866  -3.9373   0.81636 -0.1274      0.2642E-01  -1.9130  -2.3096   4.406      -10.18      -0.2465  0.6696    
   21.000   3500.      0.000 -0.6758      0.8915E-02   3.267       2.367    2.1937   0.6292  -4.3436   0.90230 -0.1608      0.3340E-01  -2.1878  -2.7328   5.193      -14.19      -0.2382  0.7539    

    1.000   4000.      0.000  0.3243      0.4641E-02   1.944       2.621    1.4777   0.5020   0.1668   0.03760  0.5907E-01  0.1332E-01   5.5417   0.0837   3.873      0.3243       0.9316  0.7506E-01
    3.000   4000.      0.000  0.2321      0.4092E-02   1.714       2.614    1.3857   0.4733   0.4062   0.11279  0.4228E-01  0.1174E-01   3.2381   0.1923   3.622      0.6963       0.6482  0.6900E-01
    5.000   4000.      0.000  0.1181      0.3057E-02   1.281       2.599    1.2122   0.4064   0.4612   0.18798  0.2152E-01  0.8771E-02   1.3422   0.1874   3.151      0.5906       0.3271  0.7000E-01
    7.000   4000.      0.000 -0.1873E-01  0.1355E-02  0.5678       2.576    0.9271   0.2377  -0.2309   0.26317 -0.3412E-02  0.3889E-02  -0.1746  -0.0549   2.388     -0.1311      -0.0166  0.7903E-01
    9.000   4000.      0.000 -0.1495     -0.1986E-03 -0.8317E-01   2.555    0.6667  -0.0488  16.1806   0.33836 -0.2724E-01 -0.5696E-03  -1.1433  -0.7901   1.703      -1.346      -0.2779  0.1235    
   11.000   4000.      0.000 -0.1933      0.5063E-03  0.2121       2.564    0.7848   0.1054 -10.0237   0.41355 -0.3521E-01  0.1453E-02  -1.1974  -1.0563   2.013      -2.126      -0.2891  0.2011    
   13.000   4000.      0.000 -0.2442      0.1514E-02  0.6340       2.578    0.9536   0.2579  -5.0072   0.48874 -0.4449E-01  0.4342E-02  -1.2728  -1.2912   2.459      -3.175      -0.2817  0.2838    
   15.000   4000.      0.000 -0.3139      0.2869E-02   1.202       2.597    1.1806   0.3919  -3.9180   0.56393 -0.5718E-01  0.8229E-02  -1.4151  -1.5356   3.066      -4.708      -0.2736  0.3735    
   17.000   4000.      0.000 -0.4032      0.4491E-02   1.881       2.619    1.4524   0.4945  -3.6441   0.63913 -0.7345E-01  0.1288E-01  -1.6042  -1.8020   3.804      -6.855      -0.2653  0.4642    
   19.000   4000.      0.000 -0.5128      0.6316E-02   2.646       2.644    1.7582   0.5691  -3.6831   0.71432 -0.9342E-01  0.1812E-01  -1.8272  -2.0959   4.649      -9.744      -0.2571  0.5520    
   21.000   4000.      0.000 -0.6430      0.8293E-02   3.474       2.671    2.0895   0.6223  -3.8871   0.78951 -0.1171      0.2379E-01  -2.0757  -2.4191   5.582      -13.50      -0.2492  0.6349    

    1.000   4500.      0.000  0.4166      0.5780E-02   2.724       2.949    1.6684   0.5535   0.1529   0.03342  0.5996E-01  0.1310E-01   6.3952   0.0847   4.921      0.4166       0.9454  0.6987E-01
    3.000   4500.      0.000  0.3159      0.5218E-02   2.459       2.942    1.5743   0.5310   0.3854   0.10026  0.4547E-01  0.1183E-01   4.0511   0.2047   4.631      0.9478       0.6987  0.6402E-01
    5.000   4500.      0.000  0.1933      0.4190E-02   1.974       2.927    1.4020   0.4811   0.4896   0.16709  0.2783E-01  0.9497E-02   2.0651   0.2355   4.104      0.9666       0.4193  0.6352E-01
    7.000   4500.      0.000  0.4842E-01  0.2534E-02   1.194       2.905    1.1246   0.3656   0.2838   0.23393  0.6969E-02  0.5744E-02   0.4324   0.1037   3.267      0.3389       0.1188  0.6845E-01
    9.000   4500.      0.000 -0.1140      0.2788E-03  0.1314       2.874    0.7467   0.0612  -7.8055   0.30077 -0.1640E-01  0.6321E-03  -0.8568  -0.4780   2.146      -1.026      -0.1754  0.8573E-01
   11.000   4500.      0.000 -0.2133     -0.7503E-04 -0.3536E-01   2.869    0.6874  -0.0179  66.3768   0.36760 -0.3071E-01 -0.1701E-03  -1.3303  -1.1900   1.972      -2.347      -0.2924  0.1499    
   13.000   4500.      0.000 -0.2577      0.7673E-03  0.3616       2.880    0.8286   0.1515  -9.2648   0.43444 -0.3709E-01  0.1739E-02  -1.3472  -1.4037   2.387      -3.350      -0.2871  0.2162    
   15.000   4500.      0.000 -0.3191      0.1995E-02  0.9403       2.897    1.0343   0.3138  -5.0899   0.50128 -0.4593E-01  0.4523E-02  -1.4399  -1.5971   2.997      -4.786      -0.2804  0.2920    
   17.000   4500.      0.000 -0.3994      0.3556E-02   1.676       2.919    1.2959   0.4431  -4.0515   0.56811 -0.5749E-01  0.8061E-02  -1.5882  -1.7951   3.782      -6.790      -0.2731  0.3724    
   19.000   4500.      0.000 -0.4994      0.5380E-02   2.535       2.944    1.6014   0.5378  -3.7431   0.63495 -0.7189E-01  0.1219E-01  -1.7771  -2.0129   4.714      -9.490      -0.2658  0.4533    
   21.000   4500.      0.000 -0.6197      0.7409E-02   3.492       2.972    1.9415   0.6052  -3.7273   0.70179 -0.8920E-01  0.1679E-01  -1.9966  -2.2557   5.769      -13.01      -0.2585  0.5321    

    1.000   5000.      0.000  0.5203      0.7034E-02   3.683       3.279    1.8786   0.5979   0.1413   0.03008  0.6066E-01  0.1291E-01   7.2497   0.0845   6.160      0.5203       0.9563  0.6536E-01
    3.000   5000.      0.000  0.4113      0.6463E-02   3.384       3.271    1.7828   0.5802   0.3647   0.09023  0.4795E-01  0.1187E-01   4.8747   0.2116   5.832       1.234       0.7384  0.5993E-01
    5.000   5000.      0.000  0.2800      0.5436E-02   2.846       3.257    1.6108   0.5425   0.4918   0.15038  0.3264E-01  0.9980E-02   2.8155   0.2668   5.246       1.400       0.4917  0.5867E-01
    7.000   5000.      0.000  0.1267      0.3817E-02   1.998       3.235    1.3395   0.4612   0.4438   0.21054  0.1477E-01  0.7008E-02   1.0827   0.2047   4.333      0.8869       0.2258  0.6139E-01
    9.000   5000.      0.000 -0.4936E-01  0.1467E-02  0.7681       3.203    0.9458   0.2536  -0.5783   0.27069 -0.5755E-02  0.2694E-02  -0.3607  -0.1467   3.029     -0.4442      -0.0509  0.6937E-01
   11.000   5000.      0.000 -0.2158     -0.6529E-03 -0.3419       3.173    0.5906  -0.1824   6.9433   0.33084 -0.2516E-01 -0.1199E-02  -1.3466  -1.2665   1.874      -2.374      -0.2655  0.1031    
   13.000   5000.      0.000 -0.2784      0.5181E-04  0.2713E-01   3.183    0.7087   0.0120-133.4119   0.39099 -0.3246E-01  0.9512E-04  -1.4622  -1.6043   2.256      -3.619      -0.2911  0.1665    
   15.000   5000.      0.000 -0.3323      0.1102E-02  0.5768       3.198    0.8846   0.2039  -8.6409   0.45115 -0.3874E-01  0.2023E-02  -1.5027  -1.7621   2.828      -4.984      -0.2855  0.2290    
   17.000   5000.      0.000 -0.4042      0.2546E-02   1.333       3.217    1.1266   0.3678  -5.1536   0.51130 -0.4712E-01  0.4675E-02  -1.6081  -1.8955   3.625      -6.871      -0.2793  0.2986    
   19.000   5000.      0.000 -0.4951      0.4312E-02   2.258       3.242    1.4224   0.4896  -4.1669   0.57145 -0.5772E-01  0.7916E-02  -1.7609  -2.0402   4.611      -9.407      -0.2728  0.3714    
   21.000   5000.      0.000 -0.6058      0.6337E-02   3.318       3.269    1.7617   0.5760  -3.8346   0.63161 -0.7063E-01  0.1163E-01  -1.9496  -2.2089   5.760      -12.72      -0.2661  0.4444    

    1.000   5500.      0.000  0.6355      0.8406E-02   4.842       3.610    2.1085   0.6360   0.1313   0.02734  0.6124E-01  0.1276E-01   8.1055   0.0835   7.613      0.6355       0.9652  0.6153E-01
    3.000   5500.      0.000  0.5183      0.7826E-02   4.507       3.602    2.0112   0.6221   0.3450   0.08203  0.4994E-01  0.1187E-01   5.7062   0.2146   7.245       1.555       0.7704  0.5648E-01
    5.000   5500.      0.000  0.3781      0.6797E-02   3.915       3.588    1.8388   0.5933   0.4829   0.13671  0.3643E-01  0.1031E-01   3.5867   0.2865   6.598       1.891       0.5498  0.5484E-01
    7.000   5500.      0.000  0.2163      0.5204E-02   2.997       3.566    1.5720   0.5347   0.5052   0.19140  0.2085E-01  0.7897E-02   1.7683   0.2701   5.606       1.514       0.3121  0.5619E-01
    9.000   5500.      0.000  0.3212E-01  0.2905E-02   1.673       3.535    1.1868   0.3989   0.1728   0.24608  0.3095E-02  0.4408E-02   0.2271   0.0689   4.195      0.2891       0.0627  0.6078E-01
   11.000   5500.      0.000 -0.1666      0.5696E-04  0.3281E-01   3.496    0.7095   0.0132 -55.8774   0.30077 -0.1606E-01  0.8643E-04  -1.0239  -0.7391   2.480      -1.833      -0.1755  0.7555E-01
   13.000   5500.      0.000 -0.3030     -0.6879E-03 -0.3962       3.485    0.5847  -0.1944   9.9414   0.35545 -0.2919E-01 -0.1044E-02  -1.6004  -1.9326   2.038      -3.939      -0.2917  0.1279    
   15.000   5500.      0.000 -0.3529      0.2255E-03  0.1299       3.498    0.7378   0.0503 -40.7463   0.41013 -0.3400E-01  0.3422E-03  -1.6014  -2.0509   2.581      -5.293      -0.2894  0.1806    
   17.000   5500.      0.000 -0.4170      0.1507E-02  0.8679       3.516    0.9525   0.2592  -8.1682   0.46482 -0.4018E-01  0.2286E-02  -1.6619  -2.1170   3.348      -7.089      -0.2841  0.2398    
   19.000   5500.      0.000 -0.4994      0.3165E-02   1.823       3.538    1.2302   0.4187  -5.2059   0.51950 -0.4812E-01  0.4802E-02  -1.7769  -2.1798   4.353      -9.489      -0.2784  0.3040    
   21.000   5500.      0.000 -0.6010      0.5134E-02   2.957       3.565    1.5602   0.5316  -4.2682   0.57419 -0.5791E-01  0.7790E-02  -1.9333  -2.2688   5.563      -12.62      -0.2725  0.3704    

    1.000   6000.      0.000  0.7621      0.9900E-02   6.221       3.943    2.3588   0.6687   0.1225   0.02506  0.6170E-01  0.1262E-01   8.9610   0.0819   9.302      0.7621       0.9724  0.5849E-01
    3.000   6000.      0.000  0.6369      0.9308E-02   5.848       3.935    2.2595   0.6577   0.3267   0.07519  0.5156E-01  0.1187E-01   6.5436   0.2149   8.892       1.911       0.7968  0.5351E-01
    5.000   6000.      0.000  0.4878      0.8273E-02   5.198       3.921    2.0862   0.6355   0.4692   0.12532  0.3949E-01  0.1055E-01   4.3737   0.2981   8.180       2.439       0.5975  0.5170E-01
    7.000   6000.      0.000  0.3174      0.6700E-02   4.210       3.899    1.8226   0.5923   0.5278   0.17545  0.2570E-01  0.8542E-02   2.4820   0.3126   7.107       2.222       0.3830  0.5219E-01
    9.000   6000.      0.000  0.1249      0.4455E-02   2.799       3.869    1.4464   0.5002   0.4014   0.22557  0.1011E-01  0.5680E-02   0.8535   0.2008   5.596       1.124       0.1573  0.5521E-01
   11.000   6000.      0.000 -0.8973E-01  0.1447E-02  0.9089       3.827    0.9424   0.2520  -1.0860   0.27570 -0.7265E-02  0.1844E-02  -0.5389  -0.2737   3.607     -0.9870      -0.0733  0.6199E-01
   13.000   6000.      0.000 -0.2912     -0.1264E-02 -0.7941       3.790    0.4882  -0.4291   4.7676   0.32583 -0.2358E-01 -0.1611E-02  -1.5341  -2.0459   1.850      -3.786      -0.2549  0.8849E-01
   15.000   6000.      0.000 -0.3804     -0.6030E-03 -0.3789       3.799    0.5990  -0.1665  15.0578   0.37596 -0.3080E-01 -0.7689E-03  -1.7343  -2.5073   2.276      -5.705      -0.2924  0.1436    
   17.000   6000.      0.000 -0.4374      0.4744E-03  0.2981       3.814    0.7795   0.1003 -24.9446   0.42608 -0.3541E-01  0.6049E-03  -1.7479  -2.5012   2.973      -7.436      -0.2879  0.1931    
   19.000   6000.      0.000 -0.5119      0.1981E-02   1.245       3.835    1.0320   0.3146  -7.8125   0.47621 -0.4144E-01  0.2526E-02  -1.8235  -2.4576   3.957      -9.725      -0.2830  0.2489    
   21.000   6000.      0.000 -0.6048      0.3850E-02   2.419       3.860    1.3451   0.4659  -5.2506   0.52634 -0.4897E-01  0.4909E-02  -1.9462  -2.4461   5.192      -12.70      -0.2777  0.3085    

    1.000   6500.      0.000  0.9002      0.1151E-01   7.833       4.278    2.6281   0.6967   0.1149   0.02314  0.6210E-01  0.1250E-01   9.8177   0.0801   11.24      0.9002       0.9786  0.5562E-01
    3.000   6500.      0.000  0.7671      0.1091E-01   7.425       4.270    2.5277   0.6880   0.3099   0.06941  0.5292E-01  0.1185E-01   7.3858   0.2132   10.79       2.301       0.8190  0.5092E-01
    5.000   6500.      0.000  0.6090      0.9866E-02   6.716       4.255    2.3531   0.6707   0.4534   0.11568  0.4202E-01  0.1072E-01   5.1732   0.3041   10.01       3.045       0.6373  0.4906E-01
    7.000   6500.      0.000  0.4300      0.8306E-02   5.654       4.234    2.0916   0.6384   0.5324   0.16195  0.2966E-01  0.9023E-02   3.2184   0.3399   8.856       3.010       0.4422  0.4899E-01
    9.000   6500.      0.000  0.2290      0.6104E-02   4.155       4.204    1.7228   0.5737   0.4959   0.20822  0.1579E-01  0.6632E-02   1.5123   0.2845   7.242       2.061       0.2365  0.5094E-01
   11.000   6500.      0.000  0.5472E-02  0.3140E-02   2.137       4.163    1.2260   0.4187   0.0282   0.25449  0.3775E-03  0.3411E-02   0.0320   0.0118   5.104      0.6020E-01   0.0237  0.5495E-01
   13.000   6500.      0.000 -0.2291     -0.2886E-03 -0.1964       4.116    0.6516  -0.0732  15.1627   0.30077 -0.1581E-01 -0.3135E-03  -1.1903  -1.1106   2.682      -2.979      -0.1756  0.6811E-01
   15.000   6500.      0.000 -0.4032     -0.1692E-02  -1.151       4.097    0.4166  -0.6747   5.2528   0.34704 -0.2782E-01 -0.1838E-02  -1.8458  -3.5442   1.707      -6.048      -0.2879  0.1090    
   17.000   6500.      0.000 -0.4649     -0.5224E-03 -0.3556       4.113    0.6125  -0.1412  22.2281   0.39331 -0.3207E-01 -0.5675E-03  -1.8646  -3.1376   2.519      -7.903      -0.2909  0.1563    
   19.000   6500.      0.000 -0.5320      0.7957E-03  0.5416       4.131    0.8333   0.1573 -18.6638   0.43958 -0.3670E-01  0.8644E-03  -1.8993  -2.9365   3.442      -10.11      -0.2866  0.2042    
   21.000   6500.      0.000 -0.6169      0.2524E-02   1.718       4.155    1.1228   0.3682  -7.5411   0.48585 -0.4255E-01  0.2742E-02  -1.9869  -2.7769   4.665      -12.95      -0.2820  0.2568    

    1.000   7000.      0.000   1.050      0.1323E-01   9.700       4.614    2.9171   0.7206   0.1082   0.02148  0.6245E-01  0.1240E-01  10.6753   0.0780   13.46       1.050       0.9839  0.5308E-01
    3.000   7000.      0.000  0.9090      0.1263E-01   9.256       4.606    2.8157   0.7137   0.2946   0.06445  0.5407E-01  0.1183E-01   8.2317   0.2103   12.97       2.727       0.8378  0.4862E-01
    5.000   7000.      0.000  0.7419      0.1158E-01   8.485       4.591    2.6395   0.7002   0.4372   0.10742  0.4413E-01  0.1084E-01   5.9827   0.3061   12.12       3.710       0.6711  0.4678E-01
    7.000   7000.      0.000  0.5541      0.1002E-01   7.348       4.570    2.3795   0.6757   0.5278   0.15038  0.3296E-01  0.9390E-02   3.9731   0.3566   10.87       3.878       0.4923  0.4635E-01
    9.000   7000.      0.000  0.3445      0.7857E-02   5.759       4.540    2.0165   0.6291   0.5383   0.19335  0.2049E-01  0.7360E-02   2.1982   0.3386   9.155       3.100       0.3037  0.4755E-01
   11.000   7000.      0.000  0.1127      0.4961E-02   3.636       4.501    1.5311   0.5277   0.3408   0.23632  0.6701E-02  0.4647E-02   0.6413   0.1798   6.891       1.239       0.1080  0.5044E-01
   13.000   7000.      0.000 -0.1403      0.1311E-02  0.9607       4.450    0.9196   0.2347  -1.8985   0.27928 -0.8346E-02  0.1228E-02  -0.7152  -0.4457   4.093      -1.824      -0.0890  0.5699E-01
   15.000   7000.      0.000 -0.3759     -0.1956E-02  -1.434       4.406    0.3722  -0.8745   3.9318   0.32225 -0.2236E-01 -0.1833E-02  -1.7126  -3.4383   1.640      -5.638      -0.2457  0.7870E-01
   17.000   7000.      0.000 -0.4974     -0.1529E-02  -1.121       4.411    0.4437  -0.5727   7.5416   0.36521 -0.2958E-01 -0.1433E-02  -2.0034  -4.3193   1.958      -8.455      -0.2924  0.1264    
   19.000   7000.      0.000 -0.5594     -0.3646E-03 -0.2672       4.427    0.6389  -0.0945  39.7736   0.40818 -0.3328E-01 -0.3415E-03  -2.0030  -3.7576   2.829      -10.63      -0.2896  0.1679    
   21.000   7000.      0.000 -0.6367      0.1187E-02  0.8703       4.449    0.8989   0.2176 -15.3636   0.45115 -0.3787E-01  0.1112E-02  -2.0543  -3.3435   3.999      -13.37      -0.2855  0.2140    

    1.000   7500.      0.000   1.211      0.1508E-01   11.84       4.952    3.2259   0.7412   0.1023   0.02005  0.6276E-01  0.1230E-01  11.5337   0.0758   15.97       1.211       0.9886  0.5083E-01
    3.000   7500.      0.000   1.063      0.1447E-01   11.36       4.944    3.1237   0.7357   0.2806   0.06015  0.5506E-01  0.1180E-01   9.0808   0.2064   15.44       3.188       0.8541  0.4657E-01
    5.000   7500.      0.000  0.8864      0.1340E-01   10.53       4.929    2.9457   0.7250   0.4210   0.10026  0.4593E-01  0.1094E-01   6.8002   0.3053   14.52       4.432       0.7000  0.4478E-01
    7.000   7500.      0.000  0.6897      0.1186E-01   9.311       4.908    2.6864   0.7062   0.5185   0.14036  0.3574E-01  0.9674E-02   4.7428   0.3662   13.18       4.828       0.5352  0.4413E-01
    9.000   7500.      0.000  0.4715      0.9716E-02   7.631       4.878    2.3279   0.6719   0.5561   0.18046  0.2443E-01  0.7928E-02   2.9069   0.3737   11.36       4.244       0.3613  0.4480E-01
   11.000   7500.      0.000  0.2312      0.6877E-02   5.401       4.839    1.8522   0.6025   0.4710   0.22056  0.1198E-01  0.5611E-02   1.2802   0.2838   8.963       2.544       0.1805  0.4686E-01
   13.000   7500.      0.000 -0.3149E-01  0.3232E-02   2.538       4.789    1.2415   0.4269  -0.1613   0.26066 -0.1632E-02  0.2637E-02  -0.1570  -0.0688   5.946     -0.4093      -0.0049  0.5034E-01
   15.000   7500.      0.000 -0.3014     -0.7618E-03 -0.5983       4.734    0.5724  -0.2208   7.5565   0.30077 -0.1562E-01 -0.6216E-03  -1.3561  -1.6684   2.710      -4.521      -0.1757  0.6239E-01
   17.000   7500.      0.000 -0.5120     -0.2796E-02  -2.196       4.706    0.2315  -2.0162   3.9631   0.34087 -0.2653E-01 -0.2282E-02  -2.0665  -7.9903   1.089      -8.704      -0.2815  0.9547E-01
   19.000   7500.      0.000 -0.5938     -0.1477E-02  -1.160       4.725    0.4525  -0.5426   9.7252   0.38097 -0.3077E-01 -0.1205E-02  -2.1336  -5.2765   2.138      -11.28      -0.2920  0.1387    
   21.000   7500.      0.000 -0.6640     -0.1328E-03 -0.1043       4.743    0.6778  -0.0324 133.7319   0.42107 -0.3441E-01 -0.1083E-03  -2.1473  -4.3375   3.215      -13.94      -0.2884  0.1785    

    1.000   8000.      0.000   1.384      0.1704E-01   14.27       5.291    3.5545   0.7588   0.0970   0.01880  0.6303E-01  0.1222E-01  12.3928   0.0736   18.81       1.384       0.9928  0.4881E-01
    3.000   8000.      0.000   1.228      0.1642E-01   13.76       5.283    3.4516   0.7545   0.2677   0.05639  0.5592E-01  0.1178E-01   9.9325   0.2020   18.24       3.684       0.8683  0.4473E-01
    5.000   8000.      0.000   1.043      0.1535E-01   12.86       5.268    3.2716   0.7460   0.4054   0.09399  0.4748E-01  0.1101E-01   7.6245   0.3025   17.24       5.213       0.7252  0.4300E-01
    7.000   8000.      0.000  0.8370      0.1380E-01   11.56       5.247    3.0124   0.7315   0.5068   0.13158  0.3812E-01  0.9898E-02   5.5251   0.3707   15.81       5.859       0.5723  0.4221E-01
    9.000   8000.      0.000  0.6101      0.1168E-01   9.788       5.218    2.6576   0.7058   0.5610   0.16918  0.2779E-01  0.8379E-02   3.6347   0.3960   13.87       5.491       0.4112  0.4250E-01
   11.000   8000.      0.000  0.3613      0.8892E-02   7.449       5.180    2.1899   0.6568   0.5335   0.20678  0.1645E-01  0.6377E-02   1.9447   0.3504   11.34       3.974       0.2434  0.4396E-01
   13.000   8000.      0.000  0.9016E-01  0.5326E-02   4.462       5.131    1.5925   0.5462   0.2627   0.24437  0.4106E-02  0.3820E-02   0.4395   0.1435   8.170       1.172       0.0708  0.4661E-01
   15.000   8000.      0.000 -0.2011      0.1053E-02  0.8817       5.072    0.8763   0.1984  -3.4205   0.28197 -0.9157E-02  0.7549E-03  -0.8902  -0.6786   4.445      -3.016      -0.1007  0.5322E-01
   17.000   8000.      0.000 -0.4697     -0.2794E-02  -2.340       5.019    0.2319  -2.0107   3.4119   0.31956 -0.2139E-01 -0.2004E-02  -1.8851  -6.8603   1.164      -7.985      -0.2383  0.7099E-01
   19.000   8000.      0.000 -0.6298     -0.2722E-02  -2.280       5.020    0.2440  -1.8616   5.2479   0.35716 -0.2868E-01 -0.1952E-02  -2.2718  -9.7695   1.225      -11.97      -0.2921  0.1130    
   21.000   8000.      0.000 -0.6983     -0.1414E-02  -1.185       5.038    0.4630  -0.5080  12.3754   0.39475 -0.3180E-01 -0.1014E-02  -2.2650  -6.2867   2.333      -14.66      -0.2908  0.1493    

    1.000   8500.      0.000   1.568      0.1913E-01   17.02       5.633    3.9047   0.7741   0.0921   0.01769  0.6326E-01  0.1215E-01  13.2513   0.0713   21.99       1.568       0.9964  0.4729E-01
    3.000   8500.      0.000   1.405      0.1850E-01   16.47       5.624    3.7996   0.7706   0.2560   0.05308  0.5668E-01  0.1175E-01  10.7866   0.1972   21.37       4.215       0.8809  0.4306E-01
    5.000   8500.      0.000   1.211      0.1741E-01   15.50       5.609    3.6173   0.7638   0.3906   0.08846  0.4884E-01  0.1106E-01   8.4544   0.2983   20.29       6.053       0.7472  0.4141E-01
    7.000   8500.      0.000  0.9960      0.1586E-01   14.12       5.588    3.3579   0.7525   0.4938   0.12384  0.4018E-01  0.1008E-01   6.3179   0.3716   18.76       6.972       0.6048  0.4053E-01
    9.000   8500.      0.000  0.7603      0.1376E-01   12.25       5.559    3.0057   0.7331   0.5586   0.15923  0.3067E-01  0.8743E-02   4.3787   0.4095   16.71       6.843       0.4548  0.4056E-01
   11.000   8500.      0.000  0.5029      0.1101E-01   9.800       5.521    2.5448   0.6975   0.5644   0.19461  0.2029E-01  0.6995E-02   2.6313   0.3937   14.05       5.532       0.2984  0.4156E-01
   13.000   8500.      0.000  0.2233      0.7513E-02   6.687       5.473    1.9588   0.6238   0.4340   0.23000  0.9007E-02  0.4773E-02   1.0632   0.2707   10.72       2.902       0.1373  0.4357E-01
   15.000   8500.      0.000 -0.7901E-01  0.3196E-02   2.845       5.414    1.2355   0.4253  -0.4166   0.26538 -0.3187E-02  0.2030E-02  -0.3434  -0.1772   6.689      -1.185      -0.0267  0.4706E-01
   17.000   8500.      0.000 -0.3835     -0.1366E-02  -1.216       5.351    0.4712  -0.4821   5.3625   0.30077 -0.1547E-01 -0.8676E-03  -1.5217  -2.5855   2.521      -6.519      -0.1758  0.5783E-01
   19.000   8500.      0.000 -0.6312     -0.3949E-02  -3.515       5.316    0.0383 -17.2669   3.4116   0.33615 -0.2546E-01 -0.2509E-02  -2.2773 -58.9077  0.2036      -11.99      -0.2749  0.8610E-01
   21.000   8500.      0.000 -0.7383     -0.2776E-02  -2.471       5.332    0.2348  -1.9737   6.2739   0.37153 -0.2978E-01 -0.1764E-02  -2.4030 -12.3827   1.252      -15.50      -0.2926  0.1243    

    1.000   9000.      0.000   1.764      0.2132E-01   20.10       5.975    4.2728   0.7871   0.0878   0.01671  0.6347E-01  0.1208E-01  14.1112   0.0691   25.53       1.764       0.9997  0.4564E-01
    3.000   9000.      0.000   1.593      0.2070E-01   19.51       5.967    4.1678   0.7844   0.2451   0.05013  0.5734E-01  0.1173E-01  11.6413   0.1922   24.87       4.780       0.8919  0.4167E-01
    5.000   9000.      0.000   1.390      0.1959E-01   18.47       5.952    3.9829   0.7790   0.3764   0.08355  0.5003E-01  0.1110E-01   9.2891   0.2932   23.70       6.951       0.7666  0.3996E-01
    7.000   9000.      0.000   1.167      0.1804E-01   17.00       5.930    3.7228   0.7702   0.4803   0.11696  0.4198E-01  0.1022E-01   7.1195   0.3699   22.08       8.167       0.6334  0.3904E-01
    9.000   9000.      0.000  0.9221      0.1595E-01   15.03       5.902    3.3727   0.7553   0.5520   0.15038  0.3318E-01  0.9039E-02   5.1367   0.4170   19.90       8.299       0.4932  0.3887E-01
   11.000   9000.      0.000  0.6560      0.1323E-01   12.47       5.864    2.9173   0.7290   0.5786   0.18380  0.2361E-01  0.7499E-02   3.3370   0.4218   17.11       7.216       0.3470  0.3953E-01
   13.000   9000.      0.000  0.3679      0.9795E-02   9.232       5.817    2.3412   0.6779   0.5180   0.21722  0.1324E-01  0.5551E-02   1.7109   0.3511   13.62       4.782       0.1961  0.4105E-01
   15.000   9000.      0.000  0.5740E-01  0.5548E-02   5.229       5.759    1.6295   0.5572   0.1647   0.25064  0.2065E-02  0.3144E-02   0.2446   0.0917   9.384      0.8610       0.0418  0.4343E-01
   17.000   9000.      0.000 -0.2709      0.6430E-03  0.6060       5.691    0.8077   0.1318  -7.5989   0.28406 -0.9748E-02  0.3644E-03  -1.0599  -1.0018   4.597      -4.605      -0.1096  0.4961E-01
   19.000   9000.      0.000 -0.5743     -0.3687E-02  -3.475       5.632    0.0822  -7.5043   3.1399   0.31747 -0.2066E-01 -0.2089E-02  -2.0593 -23.5626  0.4631      -10.91      -0.2323  0.6594E-01
   21.000   9000.      0.000 -0.7749     -0.4138E-02  -3.900       5.626    0.0066-104.9598   4.1719   0.35089 -0.2788E-01 -0.2345E-02  -2.5302-437.8864  0.3716E-01  -16.27      -0.2905  0.1023    

    1.000   9500.      0.000   1.972      0.2364E-01   23.52       6.320    4.6609   0.7984   0.0838   0.01583  0.6367E-01  0.1202E-01  14.9719   0.0669   29.46       1.972       1.0027  0.4414E-01
    3.000   9500.      0.000   1.794      0.2301E-01   22.89       6.311    4.5553   0.7962   0.2351   0.04749  0.5793E-01  0.1170E-01  12.4980   0.1872   28.75       5.381       0.9017  0.4029E-01
    5.000   9500.      0.000   1.582      0.2189E-01   21.78       6.296    4.3684   0.7920   0.3631   0.07915  0.5108E-01  0.1114E-01  10.1279   0.2876   27.50       7.908       0.7840  0.3865E-01
    7.000   9500.      0.000   1.349      0.2034E-01   20.23       6.274    4.1074   0.7850   0.4668   0.11081  0.4357E-01  0.1034E-01   7.9288   0.3664   25.77       9.443       0.6588  0.3770E-01
    9.000   9500.      0.000   1.096      0.1826E-01   18.16       6.246    3.7587   0.7736   0.5430   0.14247  0.3538E-01  0.9284E-02   5.9067   0.4200   23.48       9.861       0.5272  0.3740E-01
   11.000   9500.      0.000  0.8208      0.1556E-01   15.48       6.209    3.3079   0.7539   0.5831   0.17413  0.2651E-01  0.7916E-02   4.0594   0.4396   20.54       9.029       0.3900  0.3779E-01
   13.000   9500.      0.000  0.5240      0.1218E-01   12.11       6.162    2.7403   0.7174   0.5623   0.20579  0.1692E-01  0.6193E-02   2.3797   0.4034   16.89       6.812       0.2483  0.3893E-01
   15.000   9500.      0.000  0.2050      0.8007E-02   7.966       6.105    2.0416   0.6391   0.3861   0.23745  0.6622E-02  0.4072E-02   0.8564   0.2467   12.46       3.075       0.1031  0.4081E-01
   17.000   9500.      0.000 -0.1360      0.3007E-02   2.992       6.036    1.2039   0.4117  -0.7729   0.26911 -0.4393E-02  0.1529E-02  -0.5237  -0.3182   7.267      -2.312      -0.0438  0.4397E-01
   19.000   9500.      0.000 -0.4753     -0.2103E-02  -2.092       5.966    0.3476  -1.0089   4.3165   0.30077 -0.1535E-01 -0.1070E-02  -1.6871  -4.3549   2.074      -9.031      -0.1760  0.5411E-01
   21.000   9500.      0.000 -0.7602     -0.5275E-02  -5.247       5.922   -0.1838   4.8215   3.0423   0.33242 -0.2455E-01 -0.2683E-02  -2.4790  14.6683  -1.088      -15.96      -0.2689  0.7843E-01

    1.000  0.1000E+05  0.000   2.191      0.2607E-01   27.31       6.666    5.0689   0.8082   0.0802   0.01504  0.6386E-01  0.1197E-01  15.8333   0.0648   33.79       2.191       1.0055  0.4276E-01
    3.000  0.1000E+05  0.000   2.005      0.2544E-01   26.65       6.657    4.9633   0.8065   0.2258   0.04511  0.5845E-01  0.1168E-01  13.3545   0.1821   33.04       6.016       0.9104  0.3919E-01
    5.000  0.1000E+05  0.000   1.785      0.2432E-01   25.46       6.641    4.7740   0.8031   0.3505   0.07519  0.5203E-01  0.1116E-01  10.9704   0.2815   31.71       8.925       0.7996  0.3744E-01
    7.000  0.1000E+05  0.000   1.543      0.2275E-01   23.82       6.620    4.5117   0.7976   0.4534   0.10527  0.4498E-01  0.1044E-01   8.7448   0.3617   29.87       10.80       0.6816  0.3649E-01
    9.000  0.1000E+05  0.000   1.281      0.2067E-01   21.65       6.591    4.1639   0.7888   0.5325   0.13534  0.3733E-01  0.9489E-02   6.6870   0.4200   27.45       11.53       0.5577  0.3609E-01
   11.000  0.1000E+05  0.000  0.9972      0.1801E-01   18.86       6.555    3.7168   0.7739   0.5818   0.16542  0.2907E-01  0.8265E-02   4.7963   0.4502   24.36       10.97       0.4285  0.3628E-01
   13.000  0.1000E+05  0.000  0.6918      0.1466E-01   15.35       6.509    3.1566   0.7473   0.5857   0.19550  0.2016E-01  0.6730E-02   3.0672   0.4377   20.55       8.993       0.2949  0.3712E-01
   15.000  0.1000E+05  0.000  0.3642      0.1056E-01   11.06       6.452    2.4694   0.6940   0.4940   0.22557  0.1062E-01  0.4847E-02   1.4906   0.3429   15.93       5.463       0.1579  0.3860E-01
   17.000  0.1000E+05  0.000  0.1437E-01  0.5621E-02   5.886       6.385    1.6418   0.5615   0.0415   0.25565  0.4188E-03  0.2580E-02   0.0544   0.0233   10.48      0.2443       0.0185  0.4074E-01
   19.000  0.1000E+05  0.000 -0.3506      0.9256E-04  0.9693E-01   6.309    0.7155   0.0215 -68.7307   0.28573 -0.1022E-01  0.4249E-04  -1.2290  -1.4759   4.514      -6.662      -0.1167  0.4660E-01
   21.000  0.1000E+05  0.000 -0.6870     -0.4828E-02  -5.055       6.241   -0.1089   7.4405   2.8539   0.31580 -0.2002E-01 -0.2216E-02  -2.2263  21.2343 -0.6794      -14.43      -0.2273  0.6057E-01

    1.000  0.1050E+05  0.000   2.422      0.2863E-01   31.48       7.013    5.4969   0.8166   0.0769   0.01432  0.6403E-01  0.1192E-01  16.6956   0.0628   38.55       2.422       1.0081  0.4150E-01
    3.000  0.1050E+05  0.000   2.229      0.2799E-01   30.78       7.005    5.3905   0.8152   0.2172   0.04297  0.5893E-01  0.1166E-01  14.2132   0.1771   37.76       6.687       0.9183  0.3802E-01
    5.000  0.1050E+05  0.000   2.000      0.2686E-01   29.53       6.989    5.1998   0.8126   0.3387   0.07161  0.5288E-01  0.1118E-01  11.8161   0.2752   36.34       10.00       0.8136  0.3633E-01
    7.000  0.1050E+05  0.000   1.749      0.2528E-01   27.80       6.967    4.9360   0.8083   0.4405   0.10026  0.4624E-01  0.1053E-01   9.5665   0.3561   34.39       12.24       0.7021  0.3539E-01
    9.000  0.1050E+05  0.000   1.478      0.2321E-01   25.52       6.939    4.5885   0.8015   0.5212   0.12890  0.3907E-01  0.9662E-02   7.4765   0.4178   31.84       13.30       0.5850  0.3491E-01
   11.000  0.1050E+05  0.000   1.185      0.2056E-01   22.60       6.902    4.1445   0.7902   0.5768   0.15754  0.3134E-01  0.8559E-02   5.5461   0.4558   28.61       13.04       0.4631  0.3496E-01
   13.000  0.1050E+05  0.000  0.8712      0.1725E-01   18.97       6.857    3.5905   0.7705   0.5970   0.18619  0.2303E-01  0.7182E-02   3.7714   0.4600   24.62       11.33       0.3369  0.3555E-01
   15.000  0.1050E+05  0.000  0.5350      0.1321E-01   14.52       6.801    2.9133   0.7330   0.5525   0.21483  0.1414E-01  0.5500E-02   2.1450   0.4050   19.81       8.025       0.2073  0.3672E-01
   17.000  0.1050E+05  0.000  0.1766      0.8356E-02   9.187       6.735    2.1000   0.6496   0.3267   0.24348  0.4668E-02  0.3479E-02   0.6566   0.2122   14.14       3.002       0.0752  0.3846E-01
   19.000  0.1050E+05  0.000 -0.2037      0.2704E-02   2.973       6.657    1.1530   0.3873  -1.3020   0.27212 -0.5386E-02  0.1126E-02  -0.7040  -0.5043   7.676      -3.871      -0.0574  0.4190E-01
   21.000  0.1050E+05  0.000 -0.5771     -0.2977E-02  -3.273       6.579    0.2013  -2.4718   3.7026   0.30077 -0.1526E-01 -0.1239E-02  -1.8525  -9.1521   1.324      -12.12      -0.1761  0.5100E-01

    1.000  0.1100E+05  0.000   2.665      0.3130E-01   36.06       7.362    5.9451   0.8238   0.0739   0.01367  0.6419E-01  0.1188E-01  17.5587   0.0609   43.77       2.665       1.0106  0.4033E-01
    3.000  0.1100E+05  0.000   2.464      0.3067E-01   35.33       7.354    5.8394   0.8228   0.2092   0.04101  0.5936E-01  0.1164E-01  15.0722   0.1722   42.94       7.393       0.9255  0.3714E-01
    5.000  0.1100E+05  0.000   2.227      0.2952E-01   34.00       7.338    5.6457   0.8207   0.3275   0.06836  0.5365E-01  0.1120E-01  12.6647   0.2688   41.43       11.14       0.8264  0.3530E-01
    7.000  0.1100E+05  0.000   1.967      0.2793E-01   32.18       7.316    5.3802   0.8174   0.4279   0.09570  0.4738E-01  0.1060E-01  10.3933   0.3498   39.36       13.77       0.7206  0.3437E-01
    9.000  0.1100E+05  0.000   1.687      0.2586E-01   29.79       7.288    5.0328   0.8122   0.5096   0.12304  0.4063E-01  0.9810E-02   8.2739   0.4139   36.68       15.18       0.6097  0.3385E-01
   11.000  0.1100E+05  0.000   1.385      0.2322E-01   26.75       7.251    4.5911   0.8035   0.5696   0.15038  0.3337E-01  0.8810E-02   6.3071   0.4577   33.29       15.24       0.4943  0.3377E-01
   13.000  0.1100E+05  0.000   1.062      0.1995E-01   22.98       7.206    4.0424   0.7888   0.6010   0.17772  0.2559E-01  0.7567E-02   4.4903   0.4740   29.13       13.81       0.3748  0.3418E-01
   15.000  0.1100E+05  0.000  0.7174      0.1596E-01   18.38       7.152    3.3741   0.7619   0.5853   0.20507  0.1728E-01  0.6054E-02   2.8174   0.4460   24.13       10.76       0.2520  0.3509E-01
   17.000  0.1100E+05  0.000  0.3504      0.1118E-01   12.88       7.086    2.5735   0.7063   0.4624   0.23241  0.8440E-02  0.4242E-02   1.2800   0.3266   18.24       5.956       0.1266  0.3651E-01
   19.000  0.1100E+05  0.000 -0.3893E-01  0.5542E-02   6.384       7.009    1.6286   0.5593  -0.1159   0.25975 -0.9377E-03  0.2102E-02  -0.1325  -0.0648   11.41     -0.7396      -0.0006  0.3842E-01
   21.000  0.1100E+05  0.000 -0.4414     -0.5379E-03 -0.6196       6.925    0.6099  -0.1467  14.9608   0.28709 -0.1063E-01 -0.2040E-03  -1.4013  -2.1948   4.223      -9.269      -0.1225  0.4481E-01

    1.000  0.1150E+05  0.000   2.919      0.3410E-01   41.07       7.713    6.4135   0.8301   0.0711   0.01308  0.6434E-01  0.1184E-01  18.4226   0.0590   49.47       2.919       1.0129  0.3924E-01
    3.000  0.1150E+05  0.000   2.711      0.3346E-01   40.30       7.705    6.3066   0.8293   0.2018   0.03923  0.5975E-01  0.1161E-01  15.9325   0.1674   48.59       8.134       0.9320  0.3614E-01
    5.000  0.1150E+05  0.000   2.466      0.3230E-01   38.90       7.689    6.1120   0.8278   0.3170   0.06538  0.5435E-01  0.1121E-01  13.5160   0.2624   46.99       12.33       0.8381  0.3434E-01
    7.000  0.1150E+05  0.000   2.197      0.3070E-01   36.98       7.667    5.8445   0.8252   0.4159   0.09154  0.4842E-01  0.1066E-01  11.2248   0.3432   44.81       15.38       0.7375  0.3343E-01
    9.000  0.1150E+05  0.000   1.907      0.2863E-01   34.48       7.638    5.4968   0.8212   0.4979   0.11769  0.4204E-01  0.9936E-02   9.0785   0.4089   41.99       17.17       0.6322  0.3288E-01
   11.000  0.1150E+05  0.000   1.597      0.2600E-01   31.32       7.602    5.0569   0.8146   0.5610   0.14384  0.3520E-01  0.9025E-02   7.0783   0.4570   38.44       17.57       0.5226  0.3271E-01
   13.000  0.1150E+05  0.000   1.265      0.2276E-01   27.40       7.558    4.5127   0.8035   0.6002   0.17000  0.2788E-01  0.7898E-02   5.2224   0.4822   34.11       16.45       0.4092  0.3297E-01
   15.000  0.1150E+05  0.000  0.9115      0.1881E-01   22.66       7.503    3.8521   0.7838   0.6035   0.19615  0.2009E-01  0.6529E-02   3.5062   0.4730   28.90       13.67       0.2925  0.3367E-01
   17.000  0.1150E+05  0.000  0.5358      0.1410E-01   16.98       7.439    3.0629   0.7454   0.5364   0.22230  0.1181E-01  0.4895E-02   1.9224   0.3998   22.78       9.109       0.1733  0.3483E-01
   19.000  0.1150E+05  0.000  0.1379      0.8554E-02   10.30       7.362    2.1333   0.6559   0.2543   0.24846  0.3039E-02  0.2969E-02   0.4621   0.1668   15.71       2.620       0.0522  0.3642E-01
   21.000  0.1150E+05  0.000 -0.2805      0.2234E-02   2.690       7.276    1.0742   0.3442  -2.1902   0.27461 -0.6183E-02  0.7752E-03  -0.8793  -0.7538   7.816      -5.891      -0.0686  0.3968E-01

    1.000  0.1200E+05  0.000   3.186      0.3702E-01   46.52       8.066    6.9021   0.8355   0.0685   0.01253  0.6448E-01  0.1180E-01  19.2874   0.0572   55.67       3.186       1.0151  0.3823E-01
    3.000  0.1200E+05  0.000   2.970      0.3637E-01   45.71       8.057    6.7941   0.8349   0.1950   0.03760  0.6012E-01  0.1159E-01  16.7943   0.1628   54.74       8.911       0.9380  0.3522E-01
    5.000  0.1200E+05  0.000   2.717      0.3521E-01   44.24       8.041    6.5987   0.8338   0.3071   0.06266  0.5500E-01  0.1122E-01  14.3697   0.2560   53.06       13.59       0.8489  0.3344E-01
    7.000  0.1200E+05  0.000   2.439      0.3360E-01   42.22       8.019    6.3291   0.8318   0.4043   0.08772  0.4936E-01  0.1071E-01  12.0603   0.3363   50.75       17.07       0.7530  0.3256E-01
    9.000  0.1200E+05  0.000   2.140      0.3152E-01   39.60       7.990    5.9807   0.8288   0.4863   0.11279  0.4332E-01  0.1005E-01   9.8894   0.4030   47.79       19.26       0.6527  0.3199E-01
   11.000  0.1200E+05  0.000   1.821      0.2890E-01   36.32       7.954    5.5421   0.8238   0.5515   0.13785  0.3685E-01  0.9212E-02   7.8584   0.4543   44.08       20.03       0.5484  0.3175E-01
   13.000  0.1200E+05  0.000   1.480      0.2567E-01   32.26       7.910    5.0017   0.8155   0.5963   0.16291  0.2995E-01  0.8184E-02   5.9664   0.4862   39.56       19.24       0.4405  0.3189E-01
   15.000  0.1200E+05  0.000   1.117      0.2177E-01   27.36       7.857    4.3478   0.8009   0.6126   0.18798  0.2262E-01  0.6940E-02   4.2097   0.4907   34.16       16.76       0.3295  0.3242E-01
   17.000  0.1200E+05  0.000  0.7330      0.1712E-01   21.52       7.793    3.5687   0.7737   0.5791   0.21304  0.1484E-01  0.5457E-02   2.5823   0.4481   27.81       12.46       0.2160  0.3336E-01
   19.000  0.1200E+05  0.000  0.3264      0.1166E-01   14.65       7.718    2.6530   0.7154   0.4233   0.23811  0.6606E-02  0.3715E-02   1.0764   0.3029   20.47       6.201       0.1004  0.3469E-01
   21.000  0.1200E+05  0.000 -0.1036      0.5337E-02   6.707       7.631    1.5942   0.5513  -0.3244   0.26317 -0.2097E-02  0.1701E-02  -0.3204  -0.1788   12.17      -2.176      -0.0165  0.3688E-01

    1.000  0.1250E+05  0.000   3.464      0.4005E-01   52.43       8.420    7.4112   0.8402   0.0661   0.01203  0.6462E-01  0.1177E-01  20.1531   0.0555   62.40       3.464       1.0172  0.3729E-01
    3.000  0.1250E+05  0.000   3.241      0.3940E-01   51.58       8.411    7.3020   0.8398   0.1885   0.03609  0.6046E-01  0.1158E-01  17.6574   0.1583   61.42       9.723       0.9437  0.3436E-01
    5.000  0.1250E+05  0.000   2.980      0.3823E-01   50.05       8.395    7.1059   0.8389   0.2977   0.06015  0.5559E-01  0.1123E-01  15.2258   0.2498   59.65       14.90       0.8588  0.3261E-01
    7.000  0.1250E+05  0.000   2.692      0.3661E-01   47.92       8.373    6.8340   0.8375   0.3933   0.08421  0.5022E-01  0.1075E-01  12.8996   0.3294   57.22       18.85       0.7672  0.3175E-01
    9.000  0.1250E+05  0.000   2.385      0.3452E-01   45.19       8.344    6.4846   0.8352   0.4749   0.10828  0.4448E-01  0.1014E-01  10.7060   0.3966   54.11       21.46       0.6715  0.3116E-01
   11.000  0.1250E+05  0.000   2.056      0.3191E-01   41.77       8.308    6.0469   0.8315   0.5414   0.13234  0.3835E-01  0.9375E-02   8.6466   0.4502   50.24       22.62       0.5721  0.3088E-01
   13.000  0.1250E+05  0.000   1.706      0.2871E-01   37.58       8.264    5.5096   0.8252   0.5904   0.15640  0.3183E-01  0.8433E-02   6.7211   0.4872   45.53       22.18       0.4692  0.3092E-01
   15.000  0.1250E+05  0.000   1.335      0.2484E-01   32.51       8.211    4.8616   0.8145   0.6159   0.18046  0.2490E-01  0.7296E-02   4.9266   0.5017   39.92       20.03       0.3634  0.3131E-01
   17.000  0.1250E+05  0.000  0.9419      0.2024E-01   26.50       8.148    4.0915   0.7948   0.6043   0.20452  0.1757E-01  0.5946E-02   3.2581   0.4803   33.34       16.01       0.2550  0.3206E-01
   19.000  0.1250E+05  0.000  0.5265      0.1485E-01   19.44       8.074    3.1882   0.7552   0.5146   0.22858  0.9822E-02  0.4363E-02   1.7089   0.3886   25.74       10.00       0.1446  0.3317E-01
   21.000  0.1250E+05  0.000  0.8896E-01  0.8601E-02   11.26       7.988    2.1411   0.6583   0.1659   0.25264  0.1659E-02  0.2527E-02   0.2712   0.1092   17.10       1.868       0.0328  0.3464E-01

    1.000  0.1300E+05  0.000   3.754      0.4322E-01   58.83       8.776    7.9408   0.8442   0.0638   0.01157  0.6475E-01  0.1174E-01  21.0197   0.0539   69.69       3.754       1.0192  0.3641E-01
    3.000  0.1300E+05  0.000   3.524      0.4256E-01   57.94       8.767    7.8306   0.8439   0.1825   0.03470  0.6078E-01  0.1156E-01  18.5219   0.1540   68.65       10.57       0.9489  0.3355E-01
    5.000  0.1300E+05  0.000   3.255      0.4138E-01   56.34       8.751    7.6337   0.8433   0.2889   0.05784  0.5614E-01  0.1124E-01  16.0839   0.2436   66.80       16.28       0.8680  0.3182E-01
    7.000  0.1300E+05  0.000   2.958      0.3975E-01   54.11       8.728    7.3594   0.8423   0.3827   0.08098  0.5102E-01  0.1079E-01  13.7424   0.3223   64.24       20.71       0.7803  0.3099E-01
    9.000  0.1300E+05  0.000   2.641      0.3765E-01   51.26       8.700    7.0088   0.8407   0.4637   0.10411  0.4555E-01  0.1023E-01  11.5278   0.3898   60.97       23.77       0.6888  0.3040E-01
   11.000  0.1300E+05  0.000   2.303      0.3504E-01   47.71       8.664    6.5715   0.8379   0.5311   0.12725  0.3973E-01  0.9518E-02   9.4422   0.4450   56.93       25.34       0.5938  0.3008E-01
   13.000  0.1300E+05  0.000   1.945      0.3185E-01   43.36       8.620    6.0368   0.8333   0.5831   0.15038  0.3354E-01  0.8651E-02   7.4854   0.4859   52.04       25.28       0.4956  0.3004E-01
   15.000  0.1300E+05  0.000   1.565      0.2801E-01   38.14       8.567    5.3938   0.8253   0.6154   0.17352  0.2698E-01  0.7609E-02   5.6555   0.5079   46.21       23.47       0.3945  0.3032E-01
   17.000  0.1300E+05  0.000   1.163      0.2347E-01   31.95       8.505    4.6317   0.8110   0.6187   0.19665  0.2005E-01  0.6373E-02   3.9484   0.5017   39.39       19.76       0.2909  0.3092E-01
   19.000  0.1300E+05  0.000  0.7384      0.1814E-01   24.70       8.432    3.7397   0.7833   0.5681   0.21979  0.1274E-01  0.4927E-02   2.3582   0.4450   31.53       14.03       0.1853  0.3184E-01
   21.000  0.1300E+05  0.000  0.2921      0.1198E-01   16.31       8.347    2.7073   0.7217   0.3762   0.24293  0.5039E-02  0.3254E-02   0.8781   0.2715   22.60       6.135       0.0782  0.3308E-01

    1.000  0.1350E+05  0.000   4.056      0.4653E-01   65.79       9.134    8.4970   0.8476   0.0617   0.01114  0.6487E-01  0.1172E-01  21.8855   0.0523   77.61       4.056       1.0212  0.3592E-01
    3.000  0.1350E+05  0.000   3.818      0.4585E-01   64.82       9.125    8.3822   0.8475   0.1767   0.03342  0.6106E-01  0.1155E-01  19.3853   0.1498   76.49       11.45       0.9537  0.3301E-01
    5.000  0.1350E+05  0.000   3.542      0.4466E-01   63.13       9.108    8.1823   0.8471   0.2806   0.05570  0.5665E-01  0.1125E-01  16.9441   0.2377   74.53       17.71       0.8765  0.3108E-01
    7.000  0.1350E+05  0.000   3.236      0.4300E-01   60.80       9.086    7.9054   0.8464   0.3726   0.07798  0.5175E-01  0.1083E-01  14.5884   0.3154   71.83       22.65       0.7925  0.3028E-01
    9.000  0.1350E+05  0.000   2.910      0.4090E-01   57.83       9.057    7.5534   0.8453   0.4529   0.10026  0.4653E-01  0.1030E-01  12.3544   0.3828   68.41       26.19       0.7048  0.2969E-01
   11.000  0.1350E+05  0.000   2.563      0.3829E-01   54.14       9.021    7.1161   0.8433   0.5208   0.12253  0.4099E-01  0.9644E-02  10.2443   0.4392   64.19       28.19       0.6139  0.2933E-01
   13.000  0.1350E+05  0.000   2.195      0.3511E-01   49.64       8.977    6.5834   0.8399   0.5749   0.14481  0.3511E-01  0.8844E-02   8.2585   0.4829   59.10       28.54       0.5199  0.2924E-01
   15.000  0.1350E+05  0.000   1.806      0.3130E-01   44.25       8.925    5.9448   0.8341   0.6122   0.16709  0.2888E-01  0.7884E-02   6.3955   0.5106   53.06       27.09       0.4232  0.2942E-01
   17.000  0.1350E+05  0.000   1.395      0.2680E-01   37.88       8.863    5.1898   0.8236   0.6261   0.18937  0.2231E-01  0.6749E-02   4.6519   0.5156   46.00       23.72       0.3240  0.2989E-01
   19.000  0.1350E+05  0.000  0.9622      0.2153E-01   30.44       8.791    4.3079   0.8039   0.6005   0.21165  0.1539E-01  0.5423E-02   3.0229   0.4827   37.87       18.28       0.2229  0.3065E-01
   21.000  0.1350E+05  0.000  0.5071      0.1545E-01   21.84       8.707    3.2889   0.7628   0.4875   0.23393  0.8110E-02  0.3892E-02   1.5024   0.3719   28.64       10.65       0.1201  0.3171E-01

    1.000  0.1400E+05  0.000   4.370      0.4994E-01   73.22       9.494    9.0680   0.8505   0.0597   0.01074  0.6499E-01  0.1170E-01  22.7535   0.0508   86.09       4.370       1.0230  0.3515E-01
    3.000  0.1400E+05  0.000   4.125      0.4925E-01   72.20       9.484    8.9516   0.8505   0.1714   0.03222  0.6134E-01  0.1153E-01  20.2512   0.1458   84.90       12.37       0.9583  0.3231E-01
    5.000  0.1400E+05  0.000   3.842      0.4806E-01   70.45       9.468    8.7517   0.8503   0.2726   0.05371  0.5713E-01  0.1125E-01  17.8063   0.2318   82.86       19.21       0.8845  0.3038E-01
    7.000  0.1400E+05  0.000   3.526      0.4639E-01   68.01       9.445    8.4722   0.8499   0.3629   0.07519  0.5243E-01  0.1086E-01  15.4373   0.3085   80.02       24.68       0.8038  0.2961E-01
    9.000  0.1400E+05  0.000   3.190      0.4428E-01   64.91       9.416    8.1184   0.8492   0.4424   0.09667  0.4744E-01  0.1037E-01  13.1853   0.3756   76.44       28.71       0.7197  0.2902E-01
   11.000  0.1400E+05  0.000   2.834      0.4166E-01   61.08       9.380    7.6809   0.8478   0.5104   0.11816  0.4215E-01  0.9757E-02  11.0525   0.4328   72.05       31.18       0.6325  0.2864E-01
   13.000  0.1400E+05  0.000   2.458      0.3849E-01   56.44       9.336    7.1498   0.8454   0.5661   0.13964  0.3655E-01  0.9015E-02   9.0397   0.4786   66.75       31.95       0.5424  0.2850E-01
   15.000  0.1400E+05  0.000   2.059      0.3470E-01   50.88       9.284    6.5149   0.8412   0.6071   0.16112  0.3063E-01  0.8127E-02   7.1456   0.5107   60.49       30.89       0.4497  0.2861E-01
   17.000  0.1400E+05  0.000   1.640      0.3024E-01   44.33       9.223    5.7661   0.8336   0.6288   0.18261  0.2438E-01  0.7081E-02   5.3677   0.5241   53.18       27.87       0.3546  0.2897E-01
   19.000  0.1400E+05  0.000   1.198      0.2503E-01   36.69       9.151    4.8933   0.8194   0.6203   0.20409  0.1781E-01  0.5861E-02   3.7019   0.5082   44.78       22.76       0.2576  0.2960E-01
   21.000  0.1400E+05  0.000  0.7339      0.1902E-01   27.88       9.069    3.8865   0.7911   0.5527   0.22557  0.1091E-01  0.4454E-02   2.1427   0.4373   35.25       15.41       0.1589  0.3049E-01

    1.000  0.1450E+05  0.000   4.696      0.5347E-01   81.20       9.855    9.6598   0.8530   0.0578   0.01037  0.6510E-01  0.1167E-01  23.6225   0.0493   95.19       4.696       1.0248  0.3442E-01
    3.000  0.1450E+05  0.000   4.444      0.5277E-01   80.13       9.845    9.5419   0.8530   0.1664   0.03111  0.6160E-01  0.1152E-01  21.1184   0.1419   93.94       13.33       0.9626  0.3164E-01
    5.000  0.1450E+05  0.000   4.153      0.5159E-01   78.33       9.829    9.3435   0.8530   0.2651   0.05186  0.5757E-01  0.1126E-01  18.6692   0.2261   91.83       20.76       0.8920  0.2985E-01
    7.000  0.1450E+05  0.000   3.828      0.4989E-01   75.76       9.805    9.0598   0.8528   0.3537   0.07260  0.5307E-01  0.1089E-01  16.2890   0.3016   88.84       26.80       0.8143  0.2897E-01
    9.000  0.1450E+05  0.000   3.483      0.4777E-01   72.54       9.776    8.7042   0.8524   0.4322   0.09334  0.4829E-01  0.1043E-01  14.0203   0.3684   85.09       31.35       0.7335  0.2839E-01
   11.000  0.1450E+05  0.000   3.118      0.4516E-01   68.57       9.740    8.2661   0.8516   0.5002   0.11408  0.4323E-01  0.9858E-02  11.8663   0.4260   80.51       34.30       0.6498  0.2800E-01
   13.000  0.1450E+05  0.000   2.732      0.4199E-01   63.76       9.697    7.7360   0.8500   0.5570   0.13483  0.3788E-01  0.9168E-02   9.8281   0.4735   75.02       35.52       0.5633  0.2782E-01
   15.000  0.1450E+05  0.000   2.325      0.3822E-01   58.04       9.645    7.1042   0.8470   0.6009   0.15557  0.3223E-01  0.8345E-02   7.9049   0.5089   68.52       34.87       0.4743  0.2786E-01
   17.000  0.1450E+05  0.000   1.896      0.3379E-01   51.30       9.584    6.3609   0.8415   0.6283   0.17631  0.2628E-01  0.7376E-02   6.0947   0.5287   60.96       32.23       0.3830  0.2813E-01
   19.000  0.1450E+05  0.000   1.445      0.2863E-01   43.47       9.513    5.4963   0.8313   0.6318   0.19705  0.2004E-01  0.6249E-02   4.3939   0.5252   52.29       27.46       0.2898  0.2865E-01
   21.000  0.1450E+05  0.000  0.9725      0.2268E-01   34.44       9.432    4.5006   0.8114   0.5930   0.21780  0.1348E-01  0.4952E-02   2.7979   0.4811   42.45       20.42       0.1950  0.2940E-01

    1.000  0.1500E+05  0.000   5.035      0.5713E-01   89.74      10.217   10.2725   0.8550   0.0561   0.01003  0.6522E-01  0.1166E-01  24.4925   0.0480   105.0       5.035       1.0266  0.3374E-01
    3.000  0.1500E+05  0.000   4.774      0.5642E-01   88.62      10.208   10.1532   0.8551   0.1616   0.03008  0.6185E-01  0.1151E-01  21.9870   0.1382   103.6       14.32       0.9667  0.3101E-01
    5.000  0.1500E+05  0.000   4.476      0.5523E-01   86.76      10.191    9.9543   0.8552   0.2580   0.05013  0.5799E-01  0.1127E-01  19.5339   0.2206   101.4       22.38       0.8989  0.2924E-01
    7.000  0.1500E+05  0.000   4.143      0.5353E-01   84.08      10.168    9.6685   0.8553   0.3449   0.07018  0.5366E-01  0.1092E-01  17.1434   0.2950   98.31       29.00       0.8242  0.2837E-01
    9.000  0.1500E+05  0.000   3.788      0.5139E-01   80.73      10.138    9.3108   0.8552   0.4224   0.09023  0.4907E-01  0.1048E-01  14.8590   0.3612   94.40       34.09       0.7465  0.2780E-01
   11.000  0.1500E+05  0.000   3.414      0.4877E-01   76.61      10.102    8.8718   0.8548   0.4902   0.11028  0.4422E-01  0.9950E-02  12.6853   0.4190   89.63       37.55       0.6659  0.2740E-01
   13.000  0.1500E+05  0.000   3.019      0.4561E-01   71.65      10.059    8.3424   0.8538   0.5477   0.13033  0.3910E-01  0.9305E-02  10.6233   0.4676   83.92       39.24       0.5827  0.2719E-01
   15.000  0.1500E+05  0.000   2.602      0.4186E-01   65.75      10.007    7.7132   0.8518   0.5937   0.15038  0.3371E-01  0.8539E-02   8.6728   0.5057   77.19       39.04       0.4972  0.2718E-01
   17.000  0.1500E+05  0.000   2.164      0.3745E-01   58.83       9.947    6.9747   0.8479   0.6255   0.17043  0.2804E-01  0.7640E-02   6.8321   0.5304   69.38       36.80       0.4094  0.2737E-01
   19.000  0.1500E+05  0.000   1.705      0.3233E-01   50.79       9.877    6.1173   0.8406   0.6378   0.19048  0.2208E-01  0.6596E-02   5.0982   0.5361   60.42       32.39       0.3198  0.2779E-01
   21.000  0.1500E+05  0.000   1.223      0.2645E-01   41.55       9.796    5.1317   0.8265   0.6182   0.21054  0.1584E-01  0.5396E-02   3.4671   0.5110   50.27       25.69       0.2286  0.2843E-01

    1.000  0.1550E+05  0.000   5.385      0.6092E-01   98.88      10.582   10.9065   0.8567   0.0545   0.00970  0.6533E-01  0.1164E-01  25.3637   0.0467   115.4       5.385       1.0284  0.3309E-01
    3.000  0.1550E+05  0.000   5.118      0.6019E-01   97.71      10.572   10.7857   0.8569   0.1571   0.02911  0.6209E-01  0.1150E-01  22.8568   0.1346   114.0       15.35       0.9706  0.3041E-01
    5.000  0.1550E+05  0.000   4.812      0.5900E-01   95.77      10.556   10.5863   0.8571   0.2512   0.04851  0.5838E-01  0.1127E-01  20.4003   0.2153   111.7       24.06       0.9055  0.2866E-01
    7.000  0.1550E+05  0.000   4.469      0.5729E-01   92.98      10.532   10.2983   0.8573   0.3365   0.06791  0.5422E-01  0.1094E-01  18.0003   0.2884   108.5       31.29       0.8335  0.2781E-01
    9.000  0.1550E+05  0.000   4.106      0.5514E-01   89.50      10.502    9.9384   0.8574   0.4129   0.08732  0.4981E-01  0.1053E-01  15.7013   0.3540   104.4       36.95       0.7586  0.2724E-01
   11.000  0.1550E+05  0.000   3.722      0.5251E-01   85.23      10.466    9.4983   0.8574   0.4803   0.10672  0.4515E-01  0.1003E-01  13.5091   0.4118   99.41       40.94       0.6810  0.2684E-01
   13.000  0.1550E+05  0.000   3.318      0.4935E-01   80.11      10.423    8.9692   0.8569   0.5384   0.12613  0.4025E-01  0.9429E-02  11.4248   0.4613   93.49       43.13       0.6009  0.2660E-01
   15.000  0.1550E+05  0.000   2.892      0.4561E-01   74.03      10.372    8.3421   0.8557   0.5860   0.14553  0.3509E-01  0.8714E-02   9.4486   0.5014   86.52       43.38       0.5185  0.2654E-01
   17.000  0.1550E+05  0.000   2.445      0.4123E-01   66.92      10.311    7.6077   0.8531   0.6211   0.16494  0.2966E-01  0.7877E-02   7.5790   0.5299   78.45       41.57       0.4341  0.2668E-01
   19.000  0.1550E+05  0.000   1.976      0.3615E-01   58.68      10.242    6.7568   0.8479   0.6400   0.18434  0.2398E-01  0.6906E-02   5.8137   0.5426   69.20       37.55       0.3478  0.2701E-01
   21.000  0.1550E+05  0.000   1.486      0.3032E-01   49.21      10.161    5.7802   0.8379   0.6339   0.20374  0.1802E-01  0.5793E-02   4.1491   0.5312   58.74       31.20       0.2599  0.2754E-01

    1.000  0.1600E+05  0.000   5.748      0.6483E-01   108.6      10.948   11.5617   0.8581   0.0529   0.00940  0.6544E-01  0.1162E-01  26.2359   0.0454   126.6       5.748       1.0301  0.3247E-01
    3.000  0.1600E+05  0.000   5.473      0.6410E-01   107.4      10.938   11.4395   0.8583   0.1529   0.02820  0.6231E-01  0.1149E-01  23.7280   0.1312   125.1       16.42       0.9744  0.2984E-01
    5.000  0.1600E+05  0.000   5.159      0.6292E-01   105.4      10.922   11.2417   0.8586   0.2447   0.04699  0.5874E-01  0.1128E-01  21.2668   0.2101   122.8       25.80       0.9117  0.2826E-01
    7.000  0.1600E+05  0.000   4.808      0.6117E-01   102.5      10.898   10.9495   0.8589   0.3284   0.06579  0.5475E-01  0.1097E-01  18.8597   0.2821   119.3       33.66       0.8423  0.2727E-01
    9.000  0.1600E+05  0.000   4.435      0.5901E-01   98.87      10.868   10.5871   0.8593   0.4037   0.08459  0.5050E-01  0.1058E-01  16.5469   0.3469   115.1       39.92       0.7699  0.2672E-01
   11.000  0.1600E+05  0.000   4.042      0.5637E-01   94.46      10.832   10.1457   0.8595   0.4707   0.10339  0.4602E-01  0.1011E-01  14.3373   0.4046   109.9       44.46       0.6951  0.2631E-01
   13.000  0.1600E+05  0.000   3.629      0.5322E-01   89.17      10.789    9.6166   0.8594   0.5290   0.12219  0.4131E-01  0.9542E-02  12.2321   0.4547   103.7       47.17       0.6179  0.2605E-01
   15.000  0.1600E+05  0.000   3.194      0.4948E-01   82.91      10.737    8.9911   0.8588   0.5778   0.14098  0.3636E-01  0.8872E-02  10.2316   0.4963   96.54       47.91       0.5385  0.2595E-01
   17.000  0.1600E+05  0.000   2.738      0.4512E-01   75.60      10.677    8.2602   0.8572   0.6156   0.15978  0.3117E-01  0.8090E-02   8.3348   0.5277   88.20       46.54       0.4571  0.2604E-01
   19.000  0.1600E+05  0.000   2.260      0.4008E-01   67.15      10.608    7.4151   0.8537   0.6395   0.17858  0.2573E-01  0.7186E-02   6.5397   0.5459   78.66       42.94       0.3739  0.2630E-01
   21.000  0.1600E+05  0.000   1.760      0.3430E-01   57.47      10.529    6.4468   0.8467   0.6433   0.19738  0.2004E-01  0.6150E-02   4.8432   0.5446   67.88       36.97       0.2892  0.2674E-01

    1.000  0.1650E+05  0.000   6.123      0.6886E-01   119.0      11.316   12.2383   0.8592   0.0515   0.00911  0.6555E-01  0.1161E-01  27.1094   0.0442   138.5       6.123       1.0318  0.3189E-01
    3.000  0.1650E+05  0.000   5.841      0.6813E-01   117.7      11.306   12.1148   0.8594   0.1489   0.02734  0.6253E-01  0.1149E-01  24.6006   0.1279   137.0       17.52       0.9780  0.2930E-01
    5.000  0.1650E+05  0.000   5.519      0.6694E-01   115.7      11.290   11.9157   0.8598   0.2386   0.04557  0.5909E-01  0.1129E-01  22.1354   0.2051   134.5       27.60       0.9175  0.2774E-01
    7.000  0.1650E+05  0.000   5.160      0.6519E-01   112.6      11.266   11.6222   0.8603   0.3207   0.06380  0.5524E-01  0.1099E-01  19.7214   0.2759   130.9       36.12       0.8506  0.2676E-01
    9.000  0.1650E+05  0.000   4.777      0.6301E-01   108.9      11.236   11.2573   0.8608   0.3949   0.08203  0.5115E-01  0.1062E-01  17.3957   0.3399   126.5       43.00       0.7807  0.2622E-01
   11.000  0.1650E+05  0.000   4.375      0.6036E-01   104.3      11.199   10.8142   0.8612   0.4614   0.10026  0.4684E-01  0.1018E-01  15.1698   0.3974   121.1       48.12       0.7084  0.2580E-01
   13.000  0.1650E+05  0.000   3.952      0.5720E-01   98.84      11.156   10.2847   0.8615   0.5198   0.11848  0.4231E-01  0.9645E-02  13.0449   0.4478   114.7       51.38       0.6339  0.2553E-01
   15.000  0.1650E+05  0.000   3.508      0.5348E-01   92.40      11.105    9.6604   0.8614   0.5694   0.13671  0.3756E-01  0.9016E-02  11.0215   0.4905   107.3       52.62       0.5572  0.2541E-01
   17.000  0.1650E+05  0.000   3.043      0.4913E-01   84.90      11.045    8.9326   0.8605   0.6093   0.15494  0.3257E-01  0.8284E-02   9.0989   0.5243   98.66       51.73       0.4787  0.2544E-01
   19.000  0.1650E+05  0.000   2.556      0.4412E-01   76.24      10.976    8.0925   0.8583   0.6370   0.17317  0.2736E-01  0.7439E-02   7.2755   0.5467   88.82       48.56       0.3984  0.2564E-01
   21.000  0.1650E+05  0.000   2.047      0.3839E-01   66.33      10.897    7.1316   0.8534   0.6481   0.19140  0.2192E-01  0.6472E-02   5.5486   0.5531   77.71       42.99       0.3166  0.2601E-01

    1.000  0.1700E+05  0.000   6.510      0.7303E-01   130.0      11.686   12.9366   0.8600   0.0501   0.00885  0.6566E-01  0.1160E-01  27.9840   0.0431   151.2       6.510       1.0335  0.3134E-01
    3.000  0.1700E+05  0.000   6.220      0.7232E-01   128.7      11.676   12.8174   0.8603   0.1449   0.02654  0.6273E-01  0.1149E-01  25.4721   0.1247   149.7       18.66       0.9814  0.2905E-01
    5.000  0.1700E+05  0.000   5.892      0.7109E-01   126.6      11.659   12.6114   0.8607   0.2328   0.04423  0.5942E-01  0.1129E-01  23.0058   0.2003   147.0       29.46       0.9230  0.2725E-01
    7.000  0.1700E+05  0.000   5.524      0.6933E-01   123.4      11.635   12.3166   0.8613   0.3133   0.06192  0.5571E-01  0.1101E-01  20.5853   0.2698   143.3       38.67       0.8585  0.2627E-01
    9.000  0.1700E+05  0.000   5.132      0.6714E-01   119.5      11.605   11.9489   0.8619   0.3864   0.07961  0.5176E-01  0.1066E-01  18.2475   0.3331   138.7       46.19       0.7908  0.2574E-01
   11.000  0.1700E+05  0.000   4.720      0.6448E-01   114.8      11.568   11.5040   0.8626   0.4523   0.09731  0.4760E-01  0.1024E-01  16.0062   0.3901   133.1       51.92       0.7209  0.2533E-01
   13.000  0.1700E+05  0.000   4.288      0.6132E-01   109.2      11.525   10.9739   0.8631   0.5106   0.11500  0.4324E-01  0.9739E-02  13.8628   0.4407   126.5       55.74       0.6489  0.2504E-01
   15.000  0.1700E+05  0.000   3.834      0.5760E-01   102.5      11.474   10.3503   0.8634   0.5609   0.13269  0.3867E-01  0.9148E-02  11.8177   0.4843   118.8       57.52       0.5749  0.2489E-01
   17.000  0.1700E+05  0.000   3.360      0.5327E-01   94.83      11.414    9.6250   0.8632   0.6023   0.15038  0.3389E-01  0.8460E-02   9.8707   0.5199   109.9       57.12       0.4990  0.2489E-01
   19.000  0.1700E+05  0.000   2.864      0.4828E-01   85.95      11.346    8.7894   0.8619   0.6331   0.16807  0.2888E-01  0.7668E-02   8.0204   0.5456   99.72       54.41       0.4214  0.2504E-01
   21.000  0.1700E+05  0.000   2.346      0.4258E-01   75.81      11.267    7.8351   0.8587   0.6498   0.18577  0.2366E-01  0.6764E-02   6.2645   0.5580   88.28       49.27       0.3424  0.2534E-01

    1.000  0.1750E+05  0.000   6.910      0.7733E-01   141.7      12.057   13.6566   0.8606   0.0488   0.00859  0.6577E-01  0.1159E-01  28.8599   0.0420   164.7       6.910       1.0352  0.3081E-01
    3.000  0.1750E+05  0.000   6.612      0.7661E-01   140.4      12.047   13.5356   0.8609   0.1413   0.02578  0.6293E-01  0.1148E-01  26.3464   0.1216   163.1       19.84       0.9847  0.2857E-01
    5.000  0.1750E+05  0.000   6.276      0.7537E-01   138.1      12.030   13.3289   0.8614   0.2272   0.04297  0.5974E-01  0.1130E-01  23.8779   0.1957   160.4       31.38       0.9283  0.2678E-01
    7.000  0.1750E+05  0.000   5.901      0.7361E-01   134.9      12.006   13.0328   0.8621   0.3062   0.06015  0.5616E-01  0.1103E-01  21.4515   0.2640   156.5       41.30       0.8660  0.2581E-01
    9.000  0.1750E+05  0.000   5.499      0.7139E-01   130.8      11.976   12.6622   0.8628   0.3783   0.07734  0.5234E-01  0.1070E-01  19.1023   0.3264   151.6       49.49       0.8004  0.2529E-01
   11.000  0.1750E+05  0.000   5.078      0.6873E-01   125.9      11.939   12.2153   0.8636   0.4435   0.09453  0.4833E-01  0.1030E-01  16.8464   0.3830   145.8       55.85       0.7328  0.2488E-01
   13.000  0.1750E+05  0.000   4.636      0.6556E-01   120.1      11.896   11.6843   0.8644   0.5016   0.11171  0.4412E-01  0.9826E-02  14.6854   0.4336   139.0       60.27       0.6631  0.2458E-01
   15.000  0.1750E+05  0.000   4.173      0.6184E-01   113.3      11.845   11.0612   0.8650   0.5524   0.12890  0.3972E-01  0.9268E-02  12.6199   0.4778   131.0       62.60       0.5915  0.2441E-01
   17.000  0.1750E+05  0.000   3.689      0.5752E-01   105.4      11.785   10.3378   0.8652   0.5950   0.14609  0.3511E-01  0.8621E-02  10.6498   0.5148   121.8       62.72       0.5181  0.2438E-01
   19.000  0.1750E+05  0.000   3.184      0.5256E-01   96.32      11.717    9.5061   0.8647   0.6281   0.16327  0.3030E-01  0.7877E-02   8.7739   0.5432   111.4       60.50       0.4431  0.2448E-01
   21.000  0.1750E+05  0.000   2.657      0.4690E-01   85.94      11.639    8.5577   0.8628   0.6493   0.18046  0.2529E-01  0.7029E-02   6.9904   0.5602   99.61       55.80       0.3666  0.2473E-01

    1.000  0.1800E+05  0.000   7.323      0.8176E-01   154.1      12.431   14.3987   0.8610   0.0475   0.00835  0.6587E-01  0.1158E-01  29.7371   0.0409   179.0       7.323       1.0369  0.3031E-01
    3.000  0.1800E+05  0.000   7.017      0.8102E-01   152.7      12.421   14.2757   0.8613   0.1378   0.02506  0.6312E-01  0.1148E-01  27.2222   0.1187   177.3       21.05       0.9879  0.2811E-01
    5.000  0.1800E+05  0.000   6.673      0.7981E-01   150.4      12.404   14.0727   0.8619   0.2218   0.04177  0.6003E-01  0.1131E-01  24.7502   0.1911   174.6       33.37       0.9334  0.2652E-01
    7.000  0.1800E+05  0.000   6.290      0.7801E-01   147.0      12.379   13.7711   0.8626   0.2994   0.05848  0.5658E-01  0.1105E-01  22.3199   0.2583   170.5       44.03       0.8731  0.2536E-01
    9.000  0.1800E+05  0.000   5.879      0.7578E-01   142.8      12.349   13.3975   0.8634   0.3704   0.07519  0.5288E-01  0.1074E-01  19.9598   0.3198   165.4       52.91       0.8095  0.2486E-01
   11.000  0.1800E+05  0.000   5.448      0.7310E-01   137.8      12.312   12.9483   0.8644   0.4349   0.09190  0.4901E-01  0.1036E-01  17.6902   0.3759   159.4       59.93       0.7440  0.2445E-01
   13.000  0.1800E+05  0.000   4.997      0.6993E-01   131.8      12.268   12.4161   0.8653   0.4928   0.10861  0.4495E-01  0.9906E-02  15.5126   0.4264   152.3       64.95       0.6765  0.2415E-01
   15.000  0.1800E+05  0.000   4.525      0.6621E-01   124.8      12.217   11.7931   0.8662   0.5438   0.12532  0.4070E-01  0.9379E-02  13.4278   0.4711   144.1       67.87       0.6072  0.2396E-01
   17.000  0.1800E+05  0.000   4.031      0.6190E-01   116.7      12.158   11.0713   0.8668   0.5874   0.14203  0.3627E-01  0.8769E-02  11.4356   0.5092   134.6       68.53       0.5361  0.2390E-01
   19.000  0.1800E+05  0.000   3.517      0.5695E-01   107.4      12.090   10.2429   0.8669   0.6224   0.15874  0.3164E-01  0.8069E-02   9.5354   0.5396   123.8       66.82       0.4635  0.2396E-01
   21.000  0.1800E+05  0.000   2.981      0.5133E-01   96.75      12.013    9.2998   0.8660   0.6470   0.17545  0.2681E-01  0.7271E-02   7.7255   0.5603   111.7       62.59       0.3895  0.2416E-01

    1.000  0.1850E+05  0.000   7.748      0.8632E-01   167.2      12.806   15.1629   0.8612   0.0463   0.00813  0.6598E-01  0.1158E-01  30.6156   0.0399   194.2       7.748       1.0386  0.2983E-01
    3.000  0.1850E+05  0.000   7.434      0.8557E-01   165.8      12.796   15.0381   0.8616   0.1345   0.02439  0.6331E-01  0.1148E-01  28.0994   0.1159   192.4       22.30       0.9910  0.2767E-01
    5.000  0.1850E+05  0.000   7.083      0.8435E-01   163.4      12.779   14.8335   0.8621   0.2167   0.04064  0.6032E-01  0.1131E-01  25.6244   0.1868   189.6       35.41       0.9382  0.2609E-01
    7.000  0.1850E+05  0.000   6.692      0.8255E-01   159.9      12.754   14.5316   0.8629   0.2929   0.05690  0.5699E-01  0.1107E-01  23.1904   0.2527   185.3       46.84       0.8799  0.2494E-01
    9.000  0.1850E+05  0.000   6.271      0.8030E-01   155.6      12.723   14.1549   0.8638   0.3628   0.07316  0.5341E-01  0.1077E-01  20.8201   0.3134   180.1       56.44       0.8182  0.2444E-01
   11.000  0.1850E+05  0.000   5.831      0.7761E-01   150.4      12.686   13.7033   0.8649   0.4266   0.08942  0.4965E-01  0.1041E-01  18.5375   0.3689   173.8       64.14       0.7546  0.2404E-01
   13.000  0.1850E+05  0.000   5.370      0.7442E-01   144.2      12.642   13.1696   0.8660   0.4842   0.10567  0.4573E-01  0.9981E-02  16.3442   0.4193   166.5       69.81       0.6892  0.2373E-01
   15.000  0.1850E+05  0.000   4.888      0.7070E-01   137.0      12.591   12.5463   0.8671   0.5353   0.12193  0.4163E-01  0.9482E-02  14.2409   0.4642   158.0       73.33       0.6220  0.2353E-01
   17.000  0.1850E+05  0.000   4.386      0.6640E-01   128.6      12.532   11.8257   0.8680   0.5796   0.13819  0.3735E-01  0.8905E-02  12.2279   0.5031   148.2       74.56       0.5532  0.2345E-01
   19.000  0.1850E+05  0.000   3.862      0.6147E-01   119.1      12.465   11.0001   0.8686   0.6161   0.15445  0.3289E-01  0.8245E-02  10.3045   0.5352   137.1       73.38       0.4828  0.2348E-01
   21.000  0.1850E+05  0.000   3.317      0.5587E-01   108.2      12.388   10.0616   0.8685   0.6434   0.17070  0.2824E-01  0.7493E-02   8.4693   0.5588   124.6       69.65       0.4111  0.2363E-01

    1.000  0.1900E+05  0.000   8.185      0.9101E-01   181.1      13.183   15.9495   0.8613   0.0452   0.00791  0.6609E-01  0.1157E-01  31.4955   0.0389   210.3       8.185       1.0403  0.2937E-01
    3.000  0.1900E+05  0.000   7.865      0.9026E-01   179.6      13.172   15.8229   0.8616   0.1314   0.02374  0.6350E-01  0.1148E-01  28.9782   0.1132   208.4       23.59       0.9941  0.2725E-01
    5.000  0.1900E+05  0.000   7.505      0.8903E-01   177.1      13.156   15.6167   0.8622   0.2118   0.03957  0.6060E-01  0.1132E-01  26.5005   0.1827   205.4       37.53       0.9428  0.2569E-01
    7.000  0.1900E+05  0.000   7.107      0.8722E-01   173.5      13.131   15.3146   0.8630   0.2866   0.05540  0.5738E-01  0.1109E-01  24.0631   0.2474   201.1       49.75       0.8865  0.2453E-01
    9.000  0.1900E+05  0.000   6.676      0.8496E-01   169.0      13.100   14.9346   0.8640   0.3555   0.07123  0.5390E-01  0.1080E-01  21.6830   0.3071   195.6       60.09       0.8265  0.2405E-01
   11.000  0.1900E+05  0.000   6.226      0.8225E-01   163.6      13.062   14.4804   0.8652   0.4185   0.08706  0.5027E-01  0.1046E-01  19.3881   0.3621   189.1       68.49       0.7648  0.2365E-01
   13.000  0.1900E+05  0.000   5.756      0.7905E-01   157.3      13.018   13.9450   0.8664   0.4757   0.10289  0.4647E-01  0.1005E-01  17.1798   0.4122   181.5       74.82       0.7013  0.2334E-01
   15.000  0.1900E+05  0.000   5.265      0.7533E-01   149.9      12.967   13.3211   0.8676   0.5269   0.11872  0.4251E-01  0.9578E-02  15.0591   0.4572   172.7       78.97       0.6361  0.2313E-01
   17.000  0.1900E+05  0.000   4.753      0.7103E-01   141.3      12.908   12.6013   0.8688   0.5717   0.13455  0.3837E-01  0.9031E-02  13.0262   0.4967   162.7       80.80       0.5693  0.2302E-01
   19.000  0.1900E+05  0.000   4.220      0.6612E-01   131.6      12.841   11.7780   0.8698   0.6095   0.15038  0.3407E-01  0.8407E-02  11.0807   0.5301   151.2       80.17       0.5011  0.2302E-01
   21.000  0.1900E+05  0.000   3.665      0.6054E-01   120.5      12.764   10.8436   0.8703   0.6389   0.16621  0.2959E-01  0.7698E-02   9.2215   0.5560   138.4       76.96       0.4315  0.2314E-01

    1.000  0.1950E+05  0.000   8.636      0.9584E-01   195.7      13.562   16.7587   0.8611   0.0441   0.00771  0.6620E-01  0.1157E-01  32.3769   0.0380   227.3       8.636       1.0420  0.2894E-01
    3.000  0.1950E+05  0.000   8.307      0.9508E-01   194.1      13.551   16.6302   0.8615   0.1284   0.02314  0.6368E-01  0.1148E-01  29.8585   0.1106   225.4       24.92       0.9970  0.2685E-01
    5.000  0.1950E+05  0.000   7.940      0.9384E-01   191.6      13.534   16.4225   0.8621   0.2072   0.03856  0.6086E-01  0.1133E-01  27.3783   0.1786   222.3       39.70       0.9473  0.2531E-01
    7.000  0.1950E+05  0.000   7.534      0.9203E-01   187.9      13.509   16.1202   0.8630   0.2806   0.05398  0.5775E-01  0.1111E-01  24.9379   0.2422   217.8       52.74       0.8927  0.2414E-01
    9.000  0.1950E+05  0.000   7.094      0.8974E-01   183.3      13.478   15.7368   0.8640   0.3484   0.06941  0.5438E-01  0.1083E-01  22.5485   0.3010   212.1       63.85       0.8345  0.2367E-01
   11.000  0.1950E+05  0.000   6.634      0.8702E-01   177.7      13.440   15.2798   0.8652   0.4107   0.08483  0.5085E-01  0.1050E-01  20.2419   0.3554   205.4       72.98       0.7744  0.2328E-01
   13.000  0.1950E+05  0.000   6.154      0.8381E-01   171.1      13.396   14.7425   0.8666   0.4675   0.10026  0.4717E-01  0.1012E-01  18.0194   0.4051   197.5       80.01       0.7128  0.2297E-01
   15.000  0.1950E+05  0.000   5.654      0.8008E-01   163.5      13.345   14.1178   0.8680   0.5186   0.11568  0.4334E-01  0.9667E-02  15.8821   0.4502   188.4       84.81       0.6495  0.2274E-01
   17.000  0.1950E+05  0.000   5.133      0.7579E-01   154.8      13.286   13.3984   0.8694   0.5638   0.13110  0.3934E-01  0.9148E-02  13.8303   0.4902   178.0       87.25       0.5847  0.2262E-01
   19.000  0.1950E+05  0.000   4.590      0.7089E-01   144.7      13.219   12.5769   0.8707   0.6025   0.14653  0.3518E-01  0.8557E-02  11.8637   0.5246   166.3       87.21       0.5184  0.2260E-01
   21.000  0.1950E+05  0.000   4.026      0.6533E-01   133.4      13.142   11.6460   0.8716   0.6337   0.16195  0.3086E-01  0.7886E-02   9.9815   0.5523   153.1       84.54       0.4509  0.2268E-01

    1.000  0.2000E+05  0.000   9.099      0.1008       211.1      13.942   17.5907   0.8609   0.0431   0.00752  0.6630E-01  0.1157E-01  33.2597   0.0371   245.3       9.099       1.0437  0.2852E-01
    3.000  0.2000E+05  0.000   8.763      0.1000       209.5      13.932   17.4604   0.8613   0.1255   0.02256  0.6385E-01  0.1148E-01  30.7404   0.1081   243.3       26.29       0.9999  0.2646E-01
    5.000  0.2000E+05  0.000   8.388      0.9878E-01   206.9      13.915   17.2512   0.8619   0.2027   0.03760  0.6112E-01  0.1134E-01  28.2580   0.1747   240.0       41.94       0.9516  0.2494E-01
    7.000  0.2000E+05  0.000   7.975      0.9698E-01   203.1      13.890   16.9488   0.8628   0.2748   0.05263  0.5811E-01  0.1113E-01  25.8147   0.2371   235.4       55.82       0.8988  0.2377E-01
    9.000  0.2000E+05  0.000   7.525      0.9467E-01   198.3      13.858   16.5618   0.8639   0.3416   0.06767  0.5483E-01  0.1086E-01  23.4166   0.2951   229.5       67.72       0.8421  0.2331E-01
   11.000  0.2000E+05  0.000   7.055      0.9192E-01   192.5      13.820   16.1019   0.8651   0.4031   0.08271  0.5141E-01  0.1055E-01  21.0988   0.3488   222.5       77.61       0.7837  0.2292E-01
   13.000  0.2000E+05  0.000   6.566      0.8870E-01   185.8      13.776   15.5624   0.8666   0.4595   0.09775  0.4784E-01  0.1018E-01  18.8629   0.3981   214.4       85.36       0.7237  0.2261E-01
   15.000  0.2000E+05  0.000   6.056      0.8497E-01   178.0      13.725   14.9365   0.8681   0.5105   0.11279  0.4413E-01  0.9750E-02  16.7098   0.4431   205.0       90.84       0.6622  0.2238E-01
   17.000  0.2000E+05  0.000   5.525      0.8067E-01   169.0      13.666   14.2172   0.8697   0.5559   0.12783  0.4026E-01  0.9258E-02  14.6399   0.4834   194.3       93.93       0.5992  0.2224E-01
   19.000  0.2000E+05  0.000   4.973      0.7578E-01   158.7      13.599   13.3971   0.8712   0.5953   0.14286  0.3624E-01  0.8696E-02  12.6532   0.5186   182.2       94.49       0.5349  0.2219E-01
   21.000  0.2000E+05  0.000   4.399      0.7024E-01   147.1      13.522   12.4693   0.8725   0.6280   0.15790  0.3206E-01  0.8060E-02  10.7489   0.5479   168.6       92.38       0.4693  0.2225E-01

    1.000  0.2050E+05  0.000   9.575      0.1059       227.4      14.325   18.4457   0.8605   0.0421   0.00734  0.6641E-01  0.1157E-01  34.1440   0.0362   264.2       9.575       1.0454  0.2812E-01
    3.000  0.2050E+05  0.000   9.232      0.1051       225.7      14.314   18.3137   0.8609   0.1227   0.02201  0.6403E-01  0.1148E-01  31.6240   0.1056   262.1       27.70       1.0028  0.2609E-01
    5.000  0.2050E+05  0.000   8.849      0.1039       223.0      14.297   18.1030   0.8615   0.1984   0.03668  0.6137E-01  0.1134E-01  29.1395   0.1710   258.8       44.25       0.9558  0.2458E-01
    7.000  0.2050E+05  0.000   8.427      0.1021       219.1      14.272   17.8024   0.8624   0.2692   0.05135  0.5845E-01  0.1115E-01  26.6915   0.2322   254.1       58.99       0.9045  0.2354E-01
    9.000  0.2050E+05  0.000   7.969      0.9973E-01   214.1      14.240   17.4098   0.8636   0.3350   0.06602  0.5527E-01  0.1089E-01  24.2872   0.2893   247.9       71.72       0.8494  0.2296E-01
   11.000  0.2050E+05  0.000   7.490      0.9697E-01   208.2      14.202   16.9468   0.8649   0.3958   0.08069  0.5194E-01  0.1059E-01  21.9588   0.3423   240.7       82.39       0.7925  0.2258E-01
   13.000  0.2050E+05  0.000   6.990      0.9373E-01   201.2      14.158   16.4049   0.8664   0.4516   0.09536  0.4848E-01  0.1024E-01  19.7100   0.3913   232.3       90.87       0.7342  0.2227E-01
   15.000  0.2050E+05  0.000   6.471      0.8999E-01   193.2      14.106   15.7776   0.8680   0.5024   0.11004  0.4488E-01  0.9829E-02  17.5418   0.4361   222.6       97.06       0.6744  0.2203E-01
   17.000  0.2050E+05  0.000   5.930      0.8569E-01   184.0      14.047   15.0580   0.8697   0.5480   0.12471  0.4113E-01  0.9360E-02  15.4547   0.4766   211.5       100.8       0.6131  0.2188E-01
   19.000  0.2050E+05  0.000   5.369      0.8080E-01   173.5      13.980   14.2390   0.8714   0.5880   0.13938  0.3723E-01  0.8826E-02  13.4488   0.5124   199.1       102.0       0.5506  0.2182E-01
   21.000  0.2050E+05  0.000   4.785      0.7528E-01   161.6      13.904   13.3136   0.8730   0.6218   0.15405  0.3319E-01  0.8222E-02  11.5233   0.5429   185.1       100.5       0.4868  0.2184E-01

    1.000  0.2100E+05  0.000   10.06      0.1112       244.4      14.710   19.3241   0.8600   0.0412   0.00716  0.6652E-01  0.1157E-01  35.0300   0.0354   284.2       10.06       1.0472  0.2773E-01
    3.000  0.2100E+05  0.000   9.713      0.1104       242.7      14.699   19.1903   0.8604   0.1201   0.02148  0.6420E-01  0.1149E-01  32.5092   0.1033   282.1       29.14       1.0056  0.2574E-01
    5.000  0.2100E+05  0.000   9.323      0.1091       239.9      14.681   18.9781   0.8610   0.1943   0.03581  0.6162E-01  0.1135E-01  30.0228   0.1673   278.6       46.62       0.9599  0.2424E-01
    7.000  0.2100E+05  0.000   8.893      0.1073       235.9      14.656   18.6762   0.8619   0.2639   0.05013  0.5878E-01  0.1117E-01  27.5714   0.2274   273.7       62.25       0.9101  0.2320E-01
    9.000  0.2100E+05  0.000   8.426      0.1049       230.8      14.624   18.2810   0.8631   0.3286   0.06445  0.5569E-01  0.1092E-01  25.1603   0.2836   267.3       75.83       0.8564  0.2262E-01
   11.000  0.2100E+05  0.000   7.937      0.1021       224.6      14.586   17.8147   0.8645   0.3887   0.07877  0.5246E-01  0.1063E-01  22.8218   0.3360   259.8       87.30       0.8010  0.2225E-01
   13.000  0.2100E+05  0.000   7.428      0.9890E-01   217.5      14.541   17.2704   0.8660   0.4440   0.09309  0.4909E-01  0.1029E-01  20.5607   0.3845   251.1       96.56       0.7442  0.2194E-01
   15.000  0.2100E+05  0.000   6.898      0.9514E-01   209.2      14.490   16.6414   0.8677   0.4946   0.10742  0.4559E-01  0.9903E-02  18.3781   0.4291   241.1       103.5       0.6860  0.2170E-01
   17.000  0.2100E+05  0.000   6.348      0.9084E-01   199.8      14.431   15.9211   0.8695   0.5402   0.12174  0.4196E-01  0.9455E-02  16.2746   0.4697   229.7       107.9       0.6264  0.2154E-01
   19.000  0.2100E+05  0.000   5.777      0.8596E-01   189.0      14.363   15.1027   0.8714   0.5807   0.13606  0.3818E-01  0.8947E-02  14.2502   0.5060   216.9       109.8       0.5655  0.2146E-01
   21.000  0.2100E+05  0.000   5.184      0.8045E-01   176.9      14.288   14.1794   0.8733   0.6154   0.15038  0.3427E-01  0.8373E-02  12.3046   0.5374   202.6       108.9       0.5035  0.2146E-01

    1.000  0.2150E+05  0.000   10.57      0.1165       262.4      15.096   20.2260   0.8593   0.0403   0.00699  0.6663E-01  0.1157E-01  35.9175   0.0346   305.3       10.57       1.0489  0.2737E-01
    3.000  0.2150E+05  0.000   10.21      0.1157       260.6      15.085   20.0904   0.8598   0.1175   0.02098  0.6437E-01  0.1149E-01  33.3962   0.1011   303.1       30.62       1.0084  0.2540E-01
    5.000  0.2150E+05  0.000   9.809      0.1145       257.8      15.068   19.8841   0.8604   0.1903   0.03497  0.6185E-01  0.1137E-01  30.9056   0.1637   299.6       49.04       0.9639  0.2413E-01
    7.000  0.2150E+05  0.000   9.372      0.1126       253.6      15.043   19.5736   0.8614   0.2587   0.04896  0.5910E-01  0.1119E-01  28.4534   0.2228   294.4       65.61       0.9155  0.2287E-01
    9.000  0.2150E+05  0.000   8.896      0.1103       248.3      15.010   19.1758   0.8626   0.3225   0.06295  0.5609E-01  0.1095E-01  26.0359   0.2782   287.8       80.06       0.8632  0.2230E-01
   11.000  0.2150E+05  0.000   8.397      0.1075       242.0      14.971   18.7061   0.8640   0.3818   0.07694  0.5295E-01  0.1067E-01  23.6877   0.3298   280.1       92.37       0.8092  0.2193E-01
   13.000  0.2150E+05  0.000   7.878      0.1042       234.6      14.927   18.1589   0.8655   0.4366   0.09093  0.4968E-01  0.1035E-01  21.4149   0.3779   271.0       102.4       0.7538  0.2162E-01
   15.000  0.2150E+05  0.000   7.339      0.1004       226.1      14.875   17.5280   0.8673   0.4868   0.10492  0.4628E-01  0.9973E-02  19.2185   0.4222   260.7       110.1       0.6971  0.2138E-01
   17.000  0.2150E+05  0.000   6.779      0.9613E-01   216.4      14.816   16.8068   0.8692   0.5325   0.11891  0.4275E-01  0.9546E-02  17.0993   0.4628   249.0       115.3       0.6391  0.2121E-01
   19.000  0.2150E+05  0.000   6.199      0.9125E-01   205.4      14.749   15.9887   0.8712   0.5733   0.13290  0.3908E-01  0.9061E-02  15.0573   0.4994   235.8       117.8       0.5798  0.2112E-01
   21.000  0.2150E+05  0.000   5.596      0.8575E-01   193.1      14.673   15.0670   0.8733   0.6088   0.14689  0.3529E-01  0.8514E-02  13.0922   0.5316   221.1       117.5       0.5194  0.2110E-01

    1.000  0.2200E+05  0.000   11.08      0.1221       281.2      15.484   21.1517   0.8586   0.0394   0.00684  0.6674E-01  0.1158E-01  36.8068   0.0338   327.5       11.08       1.0507  0.2701E-01
    3.000  0.2200E+05  0.000   10.72      0.1212       279.3      15.473   21.0144   0.8590   0.1151   0.02051  0.6454E-01  0.1150E-01  34.2849   0.0989   325.2       32.15       1.0112  0.2507E-01
    5.000  0.2200E+05  0.000   10.31      0.1200       276.5      15.456   20.8055   0.8597   0.1864   0.03418  0.6208E-01  0.1138E-01  31.7915   0.1603   321.6       51.54       0.9677  0.2382E-01
    7.000  0.2200E+05  0.000   9.864      0.1182       272.2      15.431   20.4994   0.8606   0.2536   0.04785  0.5940E-01  0.1121E-01  29.3358   0.2183   316.3       69.05       0.9206  0.2271E-01
    9.000  0.2200E+05  0.000   9.379      0.1158       266.7      15.398   20.0943   0.8619   0.3165   0.06152  0.5648E-01  0.1098E-01  26.9140   0.2728   309.4       84.41       0.8697  0.2199E-01
   11.000  0.2200E+05  0.000   8.871      0.1129       260.2      15.359   19.6210   0.8633   0.3751   0.07519  0.5342E-01  0.1071E-01  24.5565   0.3238   301.4       97.58       0.8171  0.2163E-01
   13.000  0.2200E+05  0.000   8.342      0.1096       252.6      15.314   19.0709   0.8649   0.4293   0.08886  0.5024E-01  0.1040E-01  22.2724   0.3713   292.0       108.4       0.7631  0.2132E-01
   15.000  0.2200E+05  0.000   7.793      0.1059       243.9      15.262   18.4378   0.8667   0.4793   0.10253  0.4693E-01  0.1004E-01  20.0629   0.4154   281.4       116.9       0.7078  0.2108E-01
   17.000  0.2200E+05  0.000   7.224      0.1016       234.0      15.203   17.7154   0.8687   0.5249   0.11620  0.4350E-01  0.9631E-02  17.9286   0.4560   269.3       122.8       0.6512  0.2090E-01
   19.000  0.2200E+05  0.000   6.633      0.9667E-01   222.7      15.136   16.8972   0.8708   0.5659   0.12988  0.3995E-01  0.9168E-02  15.8697   0.4928   255.7       126.0       0.5935  0.2079E-01
   21.000  0.2200E+05  0.000   6.021      0.9118E-01   210.1      15.060   15.9766   0.8730   0.6020   0.14355  0.3626E-01  0.8647E-02  13.8861   0.5255   240.6       126.4       0.5346  0.2076E-01

    1.000  0.2250E+05  0.000   11.61      0.1277       301.0      15.875   22.1016   0.8578   0.0386   0.00668  0.6685E-01  0.1158E-01  37.6977   0.0331   350.9       11.61       1.0525  0.2667E-01
    3.000  0.2250E+05  0.000   11.24      0.1270       299.2      15.864   21.9754   0.8582   0.1127   0.02005  0.6469E-01  0.1151E-01  35.1727   0.0967   348.6       33.71       1.0139  0.2504E-01
    5.000  0.2250E+05  0.000   10.82      0.1256       296.0      15.846   21.7510   0.8589   0.1828   0.03342  0.6230E-01  0.1139E-01  32.6794   0.1570   344.7       54.11       0.9715  0.2352E-01
    7.000  0.2250E+05  0.000   10.37      0.1238       291.7      15.821   21.4434   0.8598   0.2488   0.04679  0.5970E-01  0.1122E-01  30.2208   0.2139   339.3       72.58       0.9256  0.2242E-01
    9.000  0.2250E+05  0.000   9.876      0.1214       286.0      15.788   21.0369   0.8611   0.3108   0.06015  0.5686E-01  0.1100E-01  27.7945   0.2676   332.1       88.88       0.8761  0.2169E-01
   11.000  0.2250E+05  0.000   9.357      0.1185       279.3      15.748   20.5598   0.8625   0.3686   0.07352  0.5387E-01  0.1075E-01  25.4281   0.3179   323.8       102.9       0.8247  0.2134E-01
   13.000  0.2250E+05  0.000   8.819      0.1152       271.5      15.703   20.0066   0.8642   0.4223   0.08689  0.5077E-01  0.1045E-01  23.1333   0.3649   314.2       114.6       0.7720  0.2103E-01
   15.000  0.2250E+05  0.000   8.260      0.1114       262.6      15.651   19.3711   0.8660   0.4719   0.10026  0.4756E-01  0.1010E-01  20.9112   0.4087   303.2       123.9       0.7180  0.2079E-01
   17.000  0.2250E+05  0.000   7.681      0.1071       252.4      15.592   18.6471   0.8681   0.5174   0.11362  0.4422E-01  0.9712E-02  18.7625   0.4491   290.7       130.6       0.6629  0.2060E-01
   19.000  0.2250E+05  0.000   7.081      0.1022       240.9      15.524   17.8285   0.8703   0.5585   0.12699  0.4077E-01  0.9269E-02  16.6874   0.4861   276.8       134.5       0.6066  0.2049E-01
   21.000  0.2250E+05  0.000   6.459      0.9674E-01   227.9      15.449   16.9087   0.8726   0.5951   0.14036  0.3719E-01  0.8771E-02  14.6859   0.5193   261.2       135.6       0.5492  0.2043E-01

    1.000  0.2300E+05  0.000   12.15      0.1335       321.7      16.267   23.0759   0.8569   0.0378   0.00654  0.6696E-01  0.1159E-01  38.5905   0.0324   375.4       12.15       1.0543  0.2634E-01
    3.000  0.2300E+05  0.000   11.77      0.1328       319.8      16.257   22.9473   0.8573   0.1104   0.01962  0.6485E-01  0.1152E-01  36.0641   0.0947   373.0       35.31       1.0166  0.2474E-01
    5.000  0.2300E+05  0.000   11.35      0.1314       316.6      16.238   22.7209   0.8580   0.1792   0.03269  0.6253E-01  0.1140E-01  33.5692   0.1538   368.9       56.74       0.9752  0.2323E-01
    7.000  0.2300E+05  0.000   10.89      0.1296       312.1      16.213   22.4118   0.8590   0.2442   0.04577  0.5999E-01  0.1124E-01  31.1080   0.2097   363.4       76.21       0.9305  0.2213E-01
    9.000  0.2300E+05  0.000   10.39      0.1271       306.2      16.179   22.0038   0.8602   0.3052   0.05885  0.5723E-01  0.1103E-01  28.6775   0.2626   356.0       93.47       0.8822  0.2141E-01
   11.000  0.2300E+05  0.000   9.858      0.1243       299.3      16.140   21.5229   0.8617   0.3623   0.07192  0.5431E-01  0.1078E-01  26.3026   0.3122   347.4       108.4       0.8320  0.2105E-01
   13.000  0.2300E+05  0.000   9.309      0.1210       291.3      16.094   20.9663   0.8634   0.4154   0.08500  0.5129E-01  0.1050E-01  23.9975   0.3586   337.4       121.0       0.7806  0.2075E-01
   15.000  0.2300E+05  0.000   8.741      0.1171       282.2      16.042   20.3281   0.8652   0.4647   0.09808  0.4816E-01  0.1016E-01  21.7633   0.4021   326.1       131.1       0.7279  0.2051E-01
   17.000  0.2300E+05  0.000   8.152      0.1128       271.7      15.982   19.6024   0.8673   0.5100   0.11115  0.4491E-01  0.9789E-02  19.6007   0.4423   313.3       138.6       0.6741  0.2032E-01
   19.000  0.2300E+05  0.000   7.542      0.1079       259.9      15.915   18.7830   0.8696   0.5512   0.12423  0.4155E-01  0.9364E-02  17.5101   0.4793   298.9       143.3       0.6191  0.2019E-01
   21.000  0.2300E+05  0.000   6.910      0.1024       246.7      15.840   17.8636   0.8720   0.5882   0.13731  0.3807E-01  0.8888E-02  15.4914   0.5129   283.0       145.1       0.5631  0.2013E-01

    1.000  0.2350E+05  0.000   12.71      0.1396       343.6      16.663   24.0953   0.8558   0.0370   0.00640  0.6707E-01  0.1161E-01  39.4819   0.0316   401.5       12.71       1.0561  0.2639E-01
    3.000  0.2350E+05  0.000   12.32      0.1387       341.4      16.651   23.9438   0.8563   0.1082   0.01920  0.6501E-01  0.1153E-01  36.9575   0.0927   398.7       36.95       1.0192  0.2445E-01
    5.000  0.2350E+05  0.000   11.89      0.1374       338.0      16.632   23.7155   0.8570   0.1758   0.03200  0.6274E-01  0.1142E-01  34.4611   0.1507   394.4       59.44       0.9788  0.2296E-01
    7.000  0.2350E+05  0.000   11.42      0.1355       333.5      16.607   23.4049   0.8580   0.2397   0.04479  0.6027E-01  0.1126E-01  31.9975   0.2057   388.7       79.94       0.9353  0.2186E-01
    9.000  0.2350E+05  0.000   10.91      0.1331       327.5      16.573   22.9954   0.8592   0.2998   0.05759  0.5758E-01  0.1106E-01  29.5630   0.2576   381.1       98.19       0.8882  0.2113E-01
   11.000  0.2350E+05  0.000   10.37      0.1302       320.3      16.533   22.5104   0.8607   0.3561   0.07039  0.5474E-01  0.1082E-01  27.1799   0.3065   372.2       114.1       0.8391  0.2078E-01
   13.000  0.2350E+05  0.000   9.813      0.1268       312.1      16.487   21.9503   0.8624   0.4087   0.08319  0.5179E-01  0.1054E-01  24.8650   0.3525   361.9       127.6       0.7888  0.2049E-01
   15.000  0.2350E+05  0.000   9.235      0.1230       302.7      16.435   21.3093   0.8643   0.4576   0.09599  0.4874E-01  0.1022E-01  22.6191   0.3955   350.2       138.5       0.7374  0.2024E-01
   17.000  0.2350E+05  0.000   8.636      0.1187       292.0      16.375   20.5815   0.8664   0.5027   0.10879  0.4558E-01  0.9862E-02  20.4433   0.4356   337.0       146.8       0.6848  0.2005E-01
   19.000  0.2350E+05  0.000   8.016      0.1138       280.0      16.308   19.7610   0.8687   0.5440   0.12159  0.4231E-01  0.9455E-02  18.3377   0.4726   322.3       152.3       0.6312  0.1991E-01
   21.000  0.2350E+05  0.000   7.375      0.1083       266.5      16.233   18.8416   0.8712   0.5812   0.13438  0.3892E-01  0.8999E-02  16.3024   0.5064   305.8       154.9       0.5766  0.1983E-01

    1.000  0.2400E+05  0.000   13.28      0.1457       366.3      17.060   25.1192   0.8548   0.0362   0.00627  0.6718E-01  0.1161E-01  40.3777   0.0310   428.5       13.28       1.0579  0.2609E-01
    3.000  0.2400E+05  0.000   12.88      0.1448       364.0      17.047   24.9654   0.8552   0.1062   0.01880  0.6517E-01  0.1154E-01  37.8528   0.0908   425.6       38.64       1.0218  0.2418E-01
    5.000  0.2400E+05  0.000   12.44      0.1434       360.5      17.028   24.7351   0.8560   0.1726   0.03133  0.6296E-01  0.1143E-01  35.3551   0.1477   421.2       62.21       0.9824  0.2269E-01
    7.000  0.2400E+05  0.000   11.97      0.1416       355.8      17.003   24.4230   0.8569   0.2354   0.04386  0.6055E-01  0.1128E-01  32.8892   0.2017   415.3       83.76       0.9399  0.2159E-01
    9.000  0.2400E+05  0.000   11.45      0.1391       349.7      16.969   24.0120   0.8582   0.2946   0.05639  0.5793E-01  0.1109E-01  30.4510   0.2529   407.5       103.0       0.8940  0.2086E-01
   11.000  0.2400E+05  0.000   10.90      0.1362       342.3      16.929   23.5227   0.8597   0.3502   0.06893  0.5515E-01  0.1085E-01  28.0601   0.3011   398.2       119.9       0.8460  0.2052E-01
   13.000  0.2400E+05  0.000   10.33      0.1328       333.9      16.883   22.9589   0.8614   0.4022   0.08146  0.5228E-01  0.1059E-01  25.7356   0.3465   387.6       134.3       0.7969  0.2023E-01
   15.000  0.2400E+05  0.000   9.742      0.1290       324.2      16.830   22.3148   0.8633   0.4507   0.09399  0.4930E-01  0.1028E-01  23.4786   0.3891   375.6       146.1       0.7466  0.1998E-01
   17.000  0.2400E+05  0.000   9.133      0.1246       313.3      16.770   21.5848   0.8654   0.4956   0.10652  0.4622E-01  0.9933E-02  21.2899   0.4289   362.0       155.3       0.6952  0.1978E-01
   19.000  0.2400E+05  0.000   8.503      0.1197       300.9      16.703   20.7628   0.8678   0.5369   0.11905  0.4303E-01  0.9542E-02  19.1700   0.4659   346.8       161.6       0.6428  0.1964E-01
   21.000  0.2400E+05  0.000   7.852      0.1143       287.1      16.627   19.8431   0.8703   0.5743   0.13158  0.3973E-01  0.9105E-02  17.1188   0.4998   329.9       164.9       0.5894  0.1956E-01

    1.000  0.2450E+05  0.000   13.86      0.1520       390.0      17.458   26.1685   0.8536   0.0355   0.00614  0.6730E-01  0.1162E-01  41.2756   0.0303   456.9       13.86       1.0598  0.2579E-01
    3.000  0.2450E+05  0.000   13.45      0.1511       387.6      17.446   26.0122   0.8541   0.1041   0.01841  0.6533E-01  0.1155E-01  38.7502   0.0889   453.8       40.36       1.0245  0.2391E-01
    5.000  0.2450E+05  0.000   13.01      0.1497       384.0      17.426   25.7800   0.8548   0.1694   0.03069  0.6317E-01  0.1145E-01  36.2513   0.1448   449.3       65.05       0.9860  0.2243E-01
    7.000  0.2450E+05  0.000   12.53      0.1478       379.2      17.401   25.4664   0.8558   0.2312   0.04297  0.6082E-01  0.1130E-01  33.7832   0.1979   443.1       87.68       0.9445  0.2134E-01
    9.000  0.2450E+05  0.000   12.00      0.1454       372.9      17.367   25.0538   0.8571   0.2896   0.05524  0.5826E-01  0.1111E-01  31.3416   0.2482   435.1       108.0       0.8997  0.2060E-01
   11.000  0.2450E+05  0.000   11.44      0.1424       365.4      17.326   24.5602   0.8586   0.3444   0.06752  0.5555E-01  0.1089E-01  28.9430   0.2957   425.5       125.8       0.8527  0.2027E-01
   13.000  0.2450E+05  0.000   10.86      0.1390       356.7      17.280   23.9925   0.8603   0.3959   0.07979  0.5274E-01  0.1063E-01  26.6094   0.3406   414.6       141.2       0.8046  0.1998E-01
   15.000  0.2450E+05  0.000   10.26      0.1352       346.8      17.227   23.3451   0.8622   0.4440   0.09207  0.4984E-01  0.1034E-01  24.3417   0.3828   402.2       153.9       0.7555  0.1973E-01
   17.000  0.2450E+05  0.000   9.644      0.1308       335.5      17.167   22.6125   0.8644   0.4886   0.10435  0.4683E-01  0.1000E-01  22.1407   0.4224   388.2       164.0       0.7052  0.1953E-01
   19.000  0.2450E+05  0.000   9.005      0.1259       322.9      17.099   21.7889   0.8667   0.5298   0.11662  0.4372E-01  0.9625E-02  20.0069   0.4592   372.6       171.1       0.6540  0.1938E-01
   21.000  0.2450E+05  0.000   8.344      0.1204       308.8      17.024   20.8684   0.8693   0.5674   0.12890  0.4052E-01  0.9205E-02  17.9404   0.4932   355.3       175.2       0.6019  0.1929E-01

    1.000  0.2500E+05  0.000   14.46      0.1584       414.7      17.859   27.2435   0.8524   0.0349   0.00602  0.6741E-01  0.1163E-01  42.1754   0.0297   486.5       14.46       1.0617  0.2551E-01
    3.000  0.2500E+05  0.000   14.04      0.1575       412.3      17.846   27.0848   0.8529   0.1022   0.01805  0.6549E-01  0.1156E-01  39.6496   0.0872   483.4       42.13       1.0271  0.2365E-01
    5.000  0.2500E+05  0.000   13.59      0.1561       408.6      17.827   26.8506   0.8536   0.1663   0.03008  0.6338E-01  0.1146E-01  37.1497   0.1420   478.7       67.95       0.9895  0.2218E-01
    7.000  0.2500E+05  0.000   13.10      0.1542       403.8      17.802   26.5429   0.8546   0.2270   0.04211  0.6108E-01  0.1133E-01  34.6771   0.1940   472.5       91.68       0.9489  0.2127E-01
    9.000  0.2500E+05  0.000   12.56      0.1517       397.2      17.767   26.1213   0.8559   0.2847   0.05414  0.5859E-01  0.1114E-01  32.2347   0.2436   464.1       113.1       0.9052  0.2035E-01
   11.000  0.2500E+05  0.000   12.00      0.1487       389.4      17.726   25.6232   0.8574   0.3388   0.06617  0.5594E-01  0.1092E-01  29.8288   0.2905   454.2       131.9       0.8592  0.2002E-01
   13.000  0.2500E+05  0.000   11.41      0.1453       380.5      17.679   25.0514   0.8591   0.3897   0.07820  0.5320E-01  0.1067E-01  27.4864   0.3348   442.9       148.3       0.8122  0.1974E-01
   15.000  0.2500E+05  0.000   10.80      0.1415       370.3      17.626   24.4005   0.8611   0.4374   0.09023  0.5036E-01  0.1039E-01  25.2084   0.3766   430.1       162.0       0.7640  0.1949E-01
   17.000  0.2500E+05  0.000   10.17      0.1371       358.8      17.566   23.6651   0.8632   0.4818   0.10226  0.4742E-01  0.1007E-01  22.9955   0.4159   415.7       172.9       0.7149  0.1929E-01
   19.000  0.2500E+05  0.000   9.519      0.1321       345.9      17.498   22.8394   0.8656   0.5229   0.11429  0.4439E-01  0.9704E-02  20.8484   0.4526   399.6       180.9       0.6649  0.1914E-01
   21.000  0.2500E+05  0.000   8.849      0.1266       331.5      17.422   21.9179   0.8682   0.5605   0.12632  0.4127E-01  0.9300E-02  18.7671   0.4866   381.9       185.8       0.6138  0.1903E-01

    1.000  0.2550E+05  0.000   15.07      0.1650       440.6      18.262   28.3444   0.8512   0.0342   0.00590  0.6753E-01  0.1165E-01  43.0773   0.0291   517.6       15.07       1.0636  0.2524E-01
    3.000  0.2550E+05  0.000   14.65      0.1640       438.0      18.249   28.1833   0.8517   0.1003   0.01769  0.6565E-01  0.1158E-01  40.5512   0.0854   514.3       43.94       1.0298  0.2340E-01
    5.000  0.2550E+05  0.000   14.19      0.1626       434.3      18.229   27.9473   0.8524   0.1633   0.02949  0.6359E-01  0.1148E-01  38.0503   0.1392   509.5       70.93       0.9929  0.2194E-01
    7.000  0.2550E+05  0.000   13.68      0.1608       429.3      18.204   27.6365   0.8533   0.2231   0.04128  0.6134E-01  0.1135E-01  35.5745   0.1904   503.1       95.79       0.9532  0.2104E-01
    9.000  0.2550E+05  0.000   13.14      0.1582       422.6      18.169   27.2148   0.8546   0.2799   0.05308  0.5891E-01  0.1117E-01  33.1304   0.2392   494.5       118.3       0.9106  0.2011E-01
   11.000  0.2550E+05  0.000   12.56      0.1552       414.6      18.128   26.7120   0.8561   0.3334   0.06487  0.5632E-01  0.1096E-01  30.7175   0.2854   484.2       138.2       0.8656  0.1979E-01
   13.000  0.2550E+05  0.000   11.97      0.1518       405.4      18.081   26.1360   0.8579   0.3837   0.07667  0.5364E-01  0.1072E-01  28.3665   0.3292   472.6       155.6       0.8195  0.1950E-01
   15.000  0.2550E+05  0.000   11.35      0.1479       395.0      18.027   25.4813   0.8598   0.4310   0.08846  0.5086E-01  0.1044E-01  26.0785   0.3705   459.4       170.2       0.7724  0.1926E-01
   17.000  0.2550E+05  0.000   10.71      0.1435       383.2      17.966   24.7428   0.8620   0.4751   0.10026  0.4800E-01  0.1013E-01  23.8543   0.4095   444.5       182.0       0.7243  0.1906E-01
   19.000  0.2550E+05  0.000   10.05      0.1386       370.0      17.899   23.9149   0.8644   0.5160   0.11205  0.4504E-01  0.9780E-02  21.6943   0.4460   428.0       190.9       0.6753  0.1890E-01
   21.000  0.2550E+05  0.000   9.367      0.1330       355.3      17.823   22.9921   0.8670   0.5537   0.12384  0.4199E-01  0.9392E-02  19.5988   0.4800   409.8       196.7       0.6254  0.1879E-01

    1.000  0.2600E+05  0.000   15.69      0.1717       467.5      18.667   29.4718   0.8499   0.0336   0.00578  0.6766E-01  0.1166E-01  43.9814   0.0285   550.1       15.69       1.0656  0.2498E-01
    3.000  0.2600E+05  0.000   15.26      0.1707       464.9      18.653   29.3084   0.8504   0.0985   0.01735  0.6581E-01  0.1159E-01  41.4550   0.0838   546.7       45.79       1.0324  0.2315E-01
    5.000  0.2600E+05  0.000   14.80      0.1693       461.0      18.634   29.0704   0.8511   0.1605   0.02892  0.6379E-01  0.1150E-01  38.9532   0.1366   541.7       73.98       0.9964  0.2171E-01
    7.000  0.2600E+05  0.000   14.28      0.1674       455.9      18.608   28.7564   0.8520   0.2193   0.04049  0.6159E-01  0.1137E-01  36.4744   0.1869   535.1       99.99       0.9575  0.2081E-01
    9.000  0.2600E+05  0.000   13.74      0.1650       449.1      18.574   28.3385   0.8533   0.2752   0.05206  0.5922E-01  0.1120E-01  34.0264   0.2349   526.4       123.6       0.9159  0.2000E-01
   11.000  0.2600E+05  0.000   13.15      0.1619       440.8      18.532   27.8271   0.8548   0.3281   0.06362  0.5669E-01  0.1099E-01  31.6090   0.2805   515.7       144.6       0.8718  0.1956E-01
   13.000  0.2600E+05  0.000   12.54      0.1584       431.4      18.484   27.2466   0.8565   0.3779   0.07519  0.5406E-01  0.1076E-01  29.2498   0.3237   503.6       163.0       0.8266  0.1928E-01
   15.000  0.2600E+05  0.000   11.91      0.1545       420.7      18.430   26.5880   0.8585   0.4247   0.08676  0.5135E-01  0.1049E-01  26.9522   0.3646   490.0       178.6       0.7805  0.1903E-01
   17.000  0.2600E+05  0.000   11.26      0.1501       408.6      18.369   25.8462   0.8607   0.4685   0.09833  0.4855E-01  0.1019E-01  24.7170   0.4032   474.8       191.4       0.7334  0.1883E-01
   19.000  0.2600E+05  0.000   10.59      0.1451       395.1      18.301   25.0158   0.8631   0.5093   0.10989  0.4566E-01  0.9854E-02  22.5446   0.4395   457.8       201.2       0.6854  0.1867E-01
   21.000  0.2600E+05  0.000   9.900      0.1396       380.1      18.225   24.0912   0.8657   0.5469   0.12146  0.4268E-01  0.9479E-02  20.4353   0.4735   439.1       207.9       0.6366  0.1855E-01

    1.000  0.2650E+05  0.000   16.33      0.1786       495.6      19.074   30.6260   0.8485   0.0329   0.00567  0.6778E-01  0.1167E-01  44.8877   0.0280   584.2       16.33       1.0676  0.2472E-01
    3.000  0.2650E+05  0.000   15.90      0.1776       492.9      19.060   30.4602   0.8490   0.0967   0.01702  0.6597E-01  0.1161E-01  42.3612   0.0821   580.6       47.69       1.0351  0.2292E-01
    5.000  0.2650E+05  0.000   15.42      0.1763       489.2      19.042   30.2343   0.8497   0.1576   0.02837  0.6399E-01  0.1152E-01  39.8556   0.1339   575.7       77.09       0.9998  0.2173E-01
    7.000  0.2650E+05  0.000   14.90      0.1743       483.7      19.015   29.9032   0.8507   0.2156   0.03972  0.6184E-01  0.1139E-01  37.3768   0.1834   568.6       104.3       0.9617  0.2059E-01
    9.000  0.2650E+05  0.000   14.34      0.1718       476.7      18.980   29.4836   0.8519   0.2708   0.05107  0.5953E-01  0.1123E-01  34.9261   0.2307   559.6       129.1       0.9210  0.1978E-01
   11.000  0.2650E+05  0.000   13.75      0.1687       468.2      18.938   28.9688   0.8534   0.3229   0.06242  0.5705E-01  0.1103E-01  32.5034   0.2756   548.6       151.2       0.8778  0.1934E-01
   13.000  0.2650E+05  0.000   13.13      0.1652       458.5      18.890   28.3836   0.8552   0.3722   0.07377  0.5448E-01  0.1080E-01  30.1363   0.3183   536.2       170.6       0.8336  0.1906E-01
   15.000  0.2650E+05  0.000   12.49      0.1613       447.5      18.836   27.7210   0.8571   0.4185   0.08512  0.5183E-01  0.1054E-01  27.8294   0.3587   522.1       187.3       0.7883  0.1882E-01
   17.000  0.2650E+05  0.000   11.83      0.1568       435.2      18.774   26.9756   0.8593   0.4620   0.09647  0.4909E-01  0.1025E-01  25.5835   0.3970   506.5       201.1       0.7422  0.1861E-01
   19.000  0.2650E+05  0.000   11.15      0.1518       421.4      18.706   26.1423   0.8617   0.5026   0.10782  0.4627E-01  0.9925E-02  23.3991   0.4331   489.0       211.8       0.6952  0.1845E-01
   21.000  0.2650E+05  0.000   10.45      0.1463       406.0      18.630   25.2156   0.8643   0.5403   0.11917  0.4336E-01  0.9564E-02  21.2766   0.4670   469.8       219.4       0.6474  0.1833E-01

    1.000  0.2700E+05  0.000   16.98      0.1857       524.9      19.483   31.8074   0.8471   0.0324   0.00557  0.6790E-01  0.1169E-01  45.7963   0.0274   619.7       16.98       1.0696  0.2448E-01
    3.000  0.2700E+05  0.000   16.54      0.1847       522.1      19.469   31.6393   0.8476   0.0950   0.01671  0.6613E-01  0.1163E-01  43.2696   0.0806   616.0       49.62       1.0378  0.2269E-01
    5.000  0.2700E+05  0.000   16.05      0.1833       518.2      19.451   31.4102   0.8482   0.1549   0.02785  0.6419E-01  0.1154E-01  40.7621   0.1314   610.9       80.27       1.0031  0.2152E-01
    7.000  0.2700E+05  0.000   15.53      0.1813       512.6      19.423   31.0771   0.8492   0.2121   0.03899  0.6209E-01  0.1142E-01  38.2817   0.1801   603.6       108.7       0.9658  0.2038E-01
    9.000  0.2700E+05  0.000   14.96      0.1788       505.5      19.389   30.6558   0.8505   0.2664   0.05013  0.5983E-01  0.1126E-01  35.8285   0.2266   594.4       134.7       0.9261  0.1956E-01
   11.000  0.2700E+05  0.000   14.36      0.1757       496.8      19.346   30.1375   0.8520   0.3179   0.06127  0.5740E-01  0.1106E-01  33.4007   0.2709   583.0       157.9       0.8838  0.1912E-01
   13.000  0.2700E+05  0.000   13.73      0.1722       486.8      19.298   29.5476   0.8537   0.3666   0.07241  0.5489E-01  0.1084E-01  31.0260   0.3130   570.2       178.5       0.8403  0.1885E-01
   15.000  0.2700E+05  0.000   13.08      0.1682       475.5      19.243   28.8805   0.8557   0.4125   0.08355  0.5229E-01  0.1059E-01  28.7101   0.3530   555.8       196.2       0.7960  0.1861E-01
   17.000  0.2700E+05  0.000   12.41      0.1637       462.9      19.182   28.1313   0.8579   0.4557   0.09469  0.4961E-01  0.1031E-01  26.4539   0.3909   539.6       210.9       0.7508  0.1840E-01
   19.000  0.2700E+05  0.000   11.72      0.1587       448.8      19.113   27.2949   0.8603   0.4961   0.10582  0.4685E-01  0.9994E-02  24.2579   0.4268   521.7       222.6       0.7047  0.1824E-01
   21.000  0.2700E+05  0.000   11.01      0.1532       433.1      19.037   26.3659   0.8629   0.5337   0.11696  0.4401E-01  0.9645E-02  22.1225   0.4605   501.9       231.1       0.6578  0.1811E-01

    1.000  0.2750E+05  0.000   17.65      0.1929       555.4      19.895   33.0164   0.8456   0.0318   0.00547  0.6803E-01  0.1171E-01  46.7072   0.0269   656.9       17.65       1.0717  0.2424E-01
    3.000  0.2750E+05  0.000   17.20      0.1919       552.5      19.881   32.8460   0.8461   0.0934   0.01641  0.6630E-01  0.1164E-01  44.1805   0.0790   653.0       51.60       1.0405  0.2247E-01
    5.000  0.2750E+05  0.000   16.71      0.1905       548.5      19.862   32.6137   0.8468   0.1523   0.02734  0.6439E-01  0.1156E-01  41.6711   0.1290   647.8       83.53       1.0064  0.2131E-01
    7.000  0.2750E+05  0.000   16.17      0.1885       542.8      19.834   32.2787   0.8478   0.2086   0.03828  0.6233E-01  0.1144E-01  39.1893   0.1768   640.2       113.2       0.9699  0.2018E-01
    9.000  0.2750E+05  0.000   15.60      0.1859       535.5      19.800   31.8556   0.8490   0.2622   0.04922  0.6012E-01  0.1129E-01  36.7337   0.2226   630.7       140.4       0.9310  0.1936E-01
   11.000  0.2750E+05  0.000   14.98      0.1828       526.5      19.757   31.3337   0.8505   0.3130   0.06015  0.5775E-01  0.1110E-01  34.3010   0.2662   619.1       164.8       0.8896  0.1891E-01
   13.000  0.2750E+05  0.000   14.34      0.1793       516.3      19.708   30.7388   0.8522   0.3612   0.07109  0.5528E-01  0.1088E-01  31.9188   0.3078   605.8       186.5       0.8470  0.1864E-01
   15.000  0.2750E+05  0.000   13.68      0.1753       504.7      19.653   30.0671   0.8542   0.4067   0.08203  0.5274E-01  0.1064E-01  29.5943   0.3474   590.9       205.3       0.8035  0.1841E-01
   17.000  0.2750E+05  0.000   13.00      0.1708       491.8      19.591   29.3139   0.8564   0.4495   0.09296  0.5012E-01  0.1037E-01  27.3281   0.3849   574.3       221.1       0.7591  0.1820E-01
   19.000  0.2750E+05  0.000   12.30      0.1658       477.4      19.522   28.4741   0.8588   0.4897   0.10390  0.4742E-01  0.1006E-01  25.1209   0.4205   555.9       233.8       0.7140  0.1803E-01
   21.000  0.2750E+05  0.000   11.58      0.1602       461.4      19.446   27.5425   0.8614   0.5272   0.11484  0.4464E-01  0.9724E-02  22.9731   0.4541   535.6       243.2       0.6680  0.1790E-01

    1.000  0.2800E+05  0.000   18.33      0.2003       587.2      20.309   34.2536   0.8441   0.0312   0.00537  0.6816E-01  0.1172E-01  47.6206   0.0264   695.6       18.33       1.0738  0.2401E-01
    3.000  0.2800E+05  0.000   17.88      0.1992       584.2      20.295   34.0809   0.8446   0.0918   0.01611  0.6646E-01  0.1166E-01  45.0939   0.0775   691.7       53.63       1.0432  0.2226E-01
    5.000  0.2800E+05  0.000   17.37      0.1978       580.0      20.275   33.8453   0.8453   0.1498   0.02685  0.6459E-01  0.1158E-01  42.5827   0.1266   686.2       86.87       1.0098  0.2111E-01
    7.000  0.2800E+05  0.000   16.83      0.1958       574.1      20.248   33.5083   0.8462   0.2052   0.03760  0.6258E-01  0.1146E-01  40.0996   0.1737   678.5       117.8       0.9740  0.1998E-01
    9.000  0.2800E+05  0.000   16.25      0.1933       566.8      20.213   33.0908   0.8474   0.2580   0.04834  0.6041E-01  0.1132E-01  37.6397   0.2186   668.9       146.2       0.9359  0.1930E-01
   11.000  0.2800E+05  0.000   15.63      0.1901       557.5      20.170   32.5578   0.8490   0.3083   0.05908  0.5809E-01  0.1113E-01  35.2043   0.2617   656.7       171.9       0.8953  0.1871E-01
   13.000  0.2800E+05  0.000   14.97      0.1866       547.0      20.121   31.9577   0.8507   0.3559   0.06982  0.5567E-01  0.1092E-01  32.8149   0.3028   643.0       194.7       0.8535  0.1845E-01
   15.000  0.2800E+05  0.000   14.30      0.1825       535.2      20.065   31.2813   0.8526   0.4009   0.08056  0.5318E-01  0.1069E-01  30.4820   0.3419   627.7       214.6       0.8108  0.1821E-01
   17.000  0.2800E+05  0.000   13.61      0.1780       521.9      20.003   30.5238   0.8548   0.4434   0.09130  0.5061E-01  0.1042E-01  28.2062   0.3791   610.6       231.4       0.7673  0.1800E-01
   19.000  0.2800E+05  0.000   12.90      0.1730       507.2      19.934   29.6803   0.8572   0.4834   0.10205  0.4797E-01  0.1013E-01  25.9881   0.4144   591.6       245.2       0.7230  0.1783E-01
   21.000  0.2800E+05  0.000   12.17      0.1674       490.8      19.857   28.7457   0.8598   0.5207   0.11279  0.4525E-01  0.9800E-02  23.8283   0.4478   570.8       255.6       0.6779  0.1770E-01

    1.000  0.2850E+05  0.000   19.03      0.2078       620.2      20.725   35.5193   0.8425   0.0307   0.00528  0.6829E-01  0.1174E-01  48.5365   0.0259   736.1       19.03       1.0760  0.2379E-01
    3.000  0.2850E+05  0.000   18.57      0.2068       617.1      20.711   35.3444   0.8430   0.0903   0.01583  0.6663E-01  0.1168E-01  46.0099   0.0761   732.0       55.70       1.0459  0.2206E-01
    5.000  0.2850E+05  0.000   18.05      0.2053       612.8      20.691   35.1054   0.8437   0.1473   0.02638  0.6479E-01  0.1160E-01  43.4970   0.1243   726.4       90.27       1.0131  0.2092E-01
    7.000  0.2850E+05  0.000   17.51      0.2033       606.8      20.663   34.7665   0.8447   0.2019   0.03694  0.6282E-01  0.1149E-01  41.0126   0.1706   718.4       122.5       0.9781  0.1979E-01
    9.000  0.2850E+05  0.000   16.91      0.2008       599.3      20.629   34.3453   0.8459   0.2540   0.04749  0.6069E-01  0.1135E-01  38.5492   0.2149   708.5       152.2       0.9407  0.1911E-01
   11.000  0.2850E+05  0.000   16.28      0.1976       589.8      20.585   33.8103   0.8474   0.3037   0.05804  0.5842E-01  0.1117E-01  36.1106   0.2573   696.0       179.1       0.9009  0.1852E-01
   13.000  0.2850E+05  0.000   15.62      0.1940       579.0      20.535   33.2048   0.8491   0.3507   0.06860  0.5605E-01  0.1096E-01  33.7143   0.2978   681.9       203.1       0.8598  0.1825E-01
   15.000  0.2850E+05  0.000   14.94      0.1899       566.9      20.479   32.5234   0.8511   0.3953   0.07915  0.5361E-01  0.1073E-01  31.3732   0.3364   666.1       224.1       0.8179  0.1802E-01
   17.000  0.2850E+05  0.000   14.24      0.1854       553.3      20.417   31.7614   0.8532   0.4375   0.08970  0.5109E-01  0.1048E-01  29.0881   0.3733   648.5       242.1       0.7752  0.1782E-01
   19.000  0.2850E+05  0.000   13.52      0.1803       538.2      20.347   30.9140   0.8556   0.4772   0.10026  0.4850E-01  0.1019E-01  26.8595   0.4083   629.0       256.8       0.7317  0.1764E-01
   21.000  0.2850E+05  0.000   12.77      0.1747       521.5      20.271   29.9762   0.8582   0.5144   0.11081  0.4584E-01  0.9874E-02  24.6879   0.4415   607.6       268.3       0.6875  0.1751E-01

    1.000  0.2900E+05  0.000   19.74      0.2155       654.6      21.144   36.8142   0.8409   0.0302   0.00519  0.6843E-01  0.1176E-01  49.4551   0.0254   778.4       19.74       1.0782  0.2358E-01
    3.000  0.2900E+05  0.000   19.27      0.2145       651.4      21.129   36.6370   0.8414   0.0888   0.01556  0.6679E-01  0.1171E-01  46.9285   0.0747   774.1       57.82       1.0487  0.2186E-01
    5.000  0.2900E+05  0.000   18.75      0.2130       647.0      21.109   36.3946   0.8421   0.1449   0.02593  0.6499E-01  0.1163E-01  44.4140   0.1220   768.3       93.76       1.0164  0.2073E-01
    7.000  0.2900E+05  0.000   18.19      0.2110       640.8      21.081   36.0537   0.8431   0.1988   0.03630  0.6306E-01  0.1152E-01  41.9285   0.1676   760.1       127.4       0.9821  0.1960E-01
    9.000  0.2900E+05  0.000   17.59      0.2085       633.1      21.047   35.6288   0.8443   0.2501   0.04667  0.6098E-01  0.1138E-01  39.4617   0.2112   749.9       158.3       0.9454  0.1893E-01
   11.000  0.2900E+05  0.000   16.95      0.2053       623.3      21.003   35.0917   0.8458   0.2992   0.05704  0.5875E-01  0.1120E-01  37.0201   0.2530   737.0       186.5       0.9064  0.1833E-01
   13.000  0.2900E+05  0.000   16.28      0.2016       612.3      20.952   34.4806   0.8475   0.3457   0.06741  0.5643E-01  0.1100E-01  34.6170   0.2930   722.5       211.7       0.8661  0.1807E-01
   15.000  0.2900E+05  0.000   15.59      0.1975       599.8      20.896   33.7940   0.8494   0.3899   0.07778  0.5403E-01  0.1078E-01  32.2679   0.3312   706.2       233.8       0.8249  0.1783E-01
   17.000  0.2900E+05  0.000   14.88      0.1929       585.9      20.833   33.0272   0.8516   0.4317   0.08816  0.5156E-01  0.1053E-01  29.9738   0.3676   688.1       252.9       0.7830  0.1763E-01
   19.000  0.2900E+05  0.000   14.15      0.1879       570.5      20.763   32.1756   0.8539   0.4711   0.09853  0.4903E-01  0.1025E-01  27.7350   0.4023   668.1       268.8       0.7403  0.1746E-01
   21.000  0.2900E+05  0.000   13.39      0.1822       553.4      20.686   31.2342   0.8566   0.5082   0.10890  0.4642E-01  0.9946E-02  25.5521   0.4353   646.1       281.2       0.6969  0.1732E-01

    1.000  0.2950E+05  0.000   20.47      0.2234       690.3      21.565   38.1386   0.8393   0.0297   0.00510  0.6857E-01  0.1179E-01  50.3763   0.0249   822.5       20.47       1.0805  0.2337E-01
    3.000  0.2950E+05  0.000   19.99      0.2224       687.0      21.550   37.9593   0.8398   0.0873   0.01529  0.6696E-01  0.1173E-01  47.8499   0.0733   818.0       59.98       1.0514  0.2167E-01
    5.000  0.2950E+05  0.000   19.46      0.2209       682.4      21.530   37.7134   0.8405   0.1426   0.02549  0.6519E-01  0.1165E-01  45.3338   0.1199   812.0       97.32       1.0198  0.2055E-01
    7.000  0.2950E+05  0.000   18.90      0.2189       676.3      21.503   37.3824   0.8414   0.1956   0.03568  0.6329E-01  0.1155E-01  42.8433   0.1646   803.8       132.3       0.9860  0.1963E-01
    9.000  0.2950E+05  0.000   18.29      0.2163       668.2      21.467   36.9417   0.8426   0.2463   0.04588  0.6125E-01  0.1141E-01  40.3772   0.2076   793.0       164.6       0.9501  0.1875E-01
   11.000  0.2950E+05  0.000   17.64      0.2131       658.3      21.422   36.4024   0.8441   0.2948   0.05607  0.5908E-01  0.1124E-01  37.9327   0.2488   779.8       194.0       0.9119  0.1814E-01
   13.000  0.2950E+05  0.000   16.96      0.2094       646.9      21.372   35.7855   0.8458   0.3408   0.06627  0.5679E-01  0.1104E-01  35.5230   0.2882   764.8       220.4       0.8722  0.1789E-01
   15.000  0.2950E+05  0.000   16.25      0.2053       634.1      21.315   35.0935   0.8477   0.3845   0.07647  0.5444E-01  0.1083E-01  33.1663   0.3260   748.0       243.8       0.8318  0.1766E-01
   17.000  0.2950E+05  0.000   15.53      0.2007       619.9      21.252   34.3218   0.8499   0.4260   0.08666  0.5202E-01  0.1058E-01  30.8633   0.3620   729.4       264.1       0.7906  0.1745E-01
   19.000  0.2950E+05  0.000   14.79      0.1956       604.1      21.182   33.4657   0.8522   0.4652   0.09686  0.4953E-01  0.1031E-01  28.6147   0.3964   708.9       281.0       0.7486  0.1728E-01
   21.000  0.2950E+05  0.000   14.03      0.1899       586.7      21.104   32.5205   0.8548   0.5021   0.10705  0.4698E-01  0.1002E-01  26.4208   0.4292   686.3       294.5       0.7060  0.1714E-01

    1.000  0.3000E+05  0.000   21.22      0.2315       727.4      21.988   39.4932   0.8376   0.0292   0.00501  0.6871E-01  0.1181E-01  51.3002   0.0244   868.4       21.22       1.0828  0.2317E-01
    3.000  0.3000E+05  0.000   20.73      0.2306       724.5      21.976   39.3389   0.8380   0.0858   0.01504  0.6712E-01  0.1176E-01  48.7709   0.0719   864.5       62.18       1.0542  0.2178E-01
    5.000  0.3000E+05  0.000   20.19      0.2290       719.3      21.953   39.0623   0.8388   0.1403   0.02506  0.6539E-01  0.1168E-01  46.2565   0.1177   857.5       101.0       1.0231  0.2037E-01
    7.000  0.3000E+05  0.000   19.61      0.2270       713.0      21.926   38.7275   0.8397   0.1926   0.03509  0.6352E-01  0.1158E-01  43.7636   0.1617   849.1       137.3       0.9899  0.1946E-01
    9.000  0.3000E+05  0.000   19.00      0.2243       704.7      21.889   38.2847   0.8409   0.2426   0.04511  0.6153E-01  0.1144E-01  41.2958   0.2040   838.0       171.0       0.9547  0.1858E-01
   11.000  0.3000E+05  0.000   18.34      0.2211       694.6      21.845   37.7431   0.8424   0.2905   0.05514  0.5940E-01  0.1128E-01  38.8485   0.2447   824.5       201.8       0.9173  0.1796E-01
   13.000  0.3000E+05  0.000   17.65      0.2174       682.9      21.794   37.1202   0.8441   0.3360   0.06517  0.5715E-01  0.1109E-01  36.4324   0.2836   809.0       229.4       0.8783  0.1771E-01
   15.000  0.3000E+05  0.000   16.94      0.2132       669.8      21.737   36.4226   0.8460   0.3793   0.07519  0.5485E-01  0.1087E-01  34.0683   0.3209   791.7       254.0       0.8385  0.1748E-01
   17.000  0.3000E+05  0.000   16.20      0.2086       655.2      21.673   35.6456   0.8481   0.4204   0.08522  0.5247E-01  0.1064E-01  31.7567   0.3565   772.5       275.4       0.7980  0.1728E-01
   19.000  0.3000E+05  0.000   15.45      0.2034       639.1      21.602   34.7848   0.8505   0.4593   0.09524  0.5003E-01  0.1037E-01  29.4985   0.3906   751.4       293.5       0.7568  0.1711E-01
   21.000  0.3000E+05  0.000   14.67      0.1978       621.3      21.525   33.8354   0.8531   0.4960   0.10527  0.4752E-01  0.1009E-01  27.2939   0.4231   728.3       308.2       0.7149  0.1696E-01

    1.000  0.3050E+05  0.000   21.97      0.2398       765.9      22.415   40.8786   0.8359   0.0287   0.00493  0.6885E-01  0.1183E-01  52.2271   0.0240   916.3       21.97       1.0851  0.2297E-01
    3.000  0.3050E+05  0.000   21.48      0.2389       762.9      22.402   40.7211   0.8363   0.0845   0.01479  0.6729E-01  0.1179E-01  49.6969   0.0706   912.2       64.43       1.0570  0.2160E-01
    5.000  0.3050E+05  0.000   20.93      0.2372       757.6      22.379   40.4420   0.8371   0.1382   0.02465  0.6559E-01  0.1170E-01  47.1822   0.1156   905.0       104.7       1.0265  0.2020E-01
    7.000  0.3050E+05  0.000   20.35      0.2352       751.1      22.351   40.1031   0.8380   0.1896   0.03451  0.6376E-01  0.1160E-01  44.6870   0.1589   896.3       142.4       0.9939  0.1930E-01
    9.000  0.3050E+05  0.000   19.73      0.2325       742.6      22.314   39.6582   0.8392   0.2390   0.04438  0.6180E-01  0.1147E-01  42.2176   0.2006   885.0       177.5       0.9593  0.1841E-01
   11.000  0.3050E+05  0.000   19.06      0.2293       732.3      22.270   39.1142   0.8407   0.2863   0.05424  0.5972E-01  0.1131E-01  39.7677   0.2407   871.1       209.6       0.9226  0.1779E-01
   13.000  0.3050E+05  0.000   18.35      0.2255       720.3      22.218   38.4852   0.8424   0.3313   0.06410  0.5751E-01  0.1113E-01  37.3453   0.2791   855.1       238.6       0.8842  0.1754E-01
   15.000  0.3050E+05  0.000   17.63      0.2213       706.9      22.161   37.7817   0.8443   0.3741   0.07396  0.5524E-01  0.1092E-01  34.9739   0.3159   837.3       264.5       0.8451  0.1731E-01
   17.000  0.3050E+05  0.000   16.89      0.2166       692.0      22.096   36.9993   0.8464   0.4149   0.08382  0.5291E-01  0.1069E-01  32.6541   0.3512   817.6       287.1       0.8053  0.1711E-01
   19.000  0.3050E+05  0.000   16.12      0.2115       675.4      22.025   36.1334   0.8487   0.4535   0.09368  0.5052E-01  0.1043E-01  30.3865   0.3849   795.9       306.3       0.7648  0.1694E-01
   21.000  0.3050E+05  0.000   15.34      0.2058       657.3      21.947   35.1796   0.8513   0.4901   0.10354  0.4806E-01  0.1015E-01  28.1715   0.4172   772.1       322.1       0.7236  0.1679E-01

    1.000  0.3100E+05  0.000   22.75      0.2483       805.9      22.843   42.2953   0.8341   0.0282   0.00485  0.6900E-01  0.1186E-01  53.1569   0.0235   966.2       22.75       1.0875  0.2278E-01
    3.000  0.3100E+05  0.000   22.24      0.2473       802.8      22.830   42.1347   0.8346   0.0831   0.01455  0.6746E-01  0.1181E-01  50.6260   0.0694   961.9       66.73       1.0599  0.2143E-01
    5.000  0.3100E+05  0.000   21.69      0.2456       797.3      22.807   41.8529   0.8353   0.1360   0.02426  0.6579E-01  0.1173E-01  48.1109   0.1136   954.5       108.5       1.0298  0.2003E-01
    7.000  0.3100E+05  0.000   21.10      0.2436       790.7      22.779   41.5100   0.8362   0.1868   0.03396  0.6399E-01  0.1163E-01  45.6136   0.1562   945.6       147.7       0.9978  0.1914E-01
    9.000  0.3100E+05  0.000   20.47      0.2409       782.0      22.742   41.0629   0.8374   0.2355   0.04366  0.6208E-01  0.1151E-01  43.1426   0.1972   933.9       184.2       0.9639  0.1824E-01
   11.000  0.3100E+05  0.000   19.79      0.2376       771.4      22.697   40.5165   0.8389   0.2822   0.05336  0.6003E-01  0.1135E-01  40.6902   0.2367   919.6       217.7       0.9279  0.1762E-01
   13.000  0.3100E+05  0.000   19.08      0.2338       759.1      22.645   39.8811   0.8406   0.3267   0.06306  0.5786E-01  0.1117E-01  38.2617   0.2746   903.1       248.0       0.8901  0.1737E-01
   15.000  0.3100E+05  0.000   18.34      0.2296       745.4      22.587   39.1715   0.8425   0.3691   0.07277  0.5563E-01  0.1097E-01  35.8832   0.3110   884.8       275.1       0.8516  0.1715E-01
   17.000  0.3100E+05  0.000   17.59      0.2249       730.1      22.522   38.3833   0.8446   0.4095   0.08247  0.5334E-01  0.1074E-01  33.5553   0.3459   864.5       299.0       0.8125  0.1695E-01
   19.000  0.3100E+05  0.000   16.81      0.2197       713.2      22.451   37.5122   0.8469   0.4479   0.09217  0.5099E-01  0.1049E-01  31.2786   0.3793   842.2       319.5       0.7726  0.1678E-01
   21.000  0.3100E+05  0.000   16.02      0.2140       694.7      22.372   36.5536   0.8494   0.4842   0.10187  0.4858E-01  0.1022E-01  29.0536   0.4113   817.8       336.4       0.7321  0.1663E-01

    1.000  0.3150E+05  0.000   23.54      0.2569       847.4      23.275   43.7441   0.8323   0.0278   0.00477  0.6915E-01  0.1188E-01  54.0898   0.0231   1018.       23.54       1.0900  0.2260E-01
    3.000  0.3150E+05  0.000   23.03      0.2559       844.2      23.261   43.5801   0.8328   0.0818   0.01432  0.6764E-01  0.1184E-01  51.5582   0.0681   1014.       69.08       1.0628  0.2126E-01
    5.000  0.3150E+05  0.000   22.47      0.2542       838.6      23.238   43.2958   0.8335   0.1340   0.02387  0.6600E-01  0.1176E-01  49.0428   0.1117   1006.       112.3       1.0333  0.1987E-01
    7.000  0.3150E+05  0.000   21.86      0.2522       831.8      23.209   42.9488   0.8344   0.1840   0.03342  0.6422E-01  0.1166E-01  46.5434   0.1535   996.8       153.0       1.0017  0.1898E-01
    9.000  0.3150E+05  0.000   21.22      0.2495       823.2      23.173   42.5110   0.8356   0.2320   0.04297  0.6234E-01  0.1154E-01  44.0680   0.1939   985.1       191.0       0.9684  0.1826E-01
   11.000  0.3150E+05  0.000   20.54      0.2462       812.2      23.128   41.9561   0.8370   0.2782   0.05251  0.6033E-01  0.1139E-01  41.6135   0.2328   970.4       225.9       0.9330  0.1758E-01
   13.000  0.3150E+05  0.000   19.82      0.2424       799.5      23.075   41.3085   0.8387   0.3222   0.06206  0.5821E-01  0.1121E-01  39.1817   0.2703   953.2       257.6       0.8959  0.1721E-01
   15.000  0.3150E+05  0.000   19.07      0.2381       785.4      23.016   40.5925   0.8406   0.3642   0.07161  0.5602E-01  0.1101E-01  36.7963   0.3062   934.3       286.1       0.8580  0.1699E-01
   17.000  0.3150E+05  0.000   18.30      0.2334       769.7      22.951   39.7984   0.8427   0.4043   0.08116  0.5377E-01  0.1079E-01  34.4606   0.3407   913.4       311.2       0.8195  0.1679E-01
   19.000  0.3150E+05  0.000   17.52      0.2281       752.5      22.879   38.9217   0.8450   0.4423   0.09071  0.5146E-01  0.1055E-01  32.1751   0.3738   890.5       332.9       0.7803  0.1662E-01
   21.000  0.3150E+05  0.000   16.71      0.2224       733.5      22.800   37.9580   0.8476   0.4785   0.10026  0.4909E-01  0.1029E-01  29.9402   0.4055   865.4       351.0       0.7405  0.1647E-01

    1.000  0.3200E+05  0.000   24.35      0.2657       890.5      23.708   45.2254   0.8305   0.0273   0.00470  0.6930E-01  0.1191E-01  55.0259   0.0227   1072.       24.35       1.0925  0.2242E-01
    3.000  0.3200E+05  0.000   23.82      0.2647       887.2      23.695   45.0582   0.8310   0.0806   0.01410  0.6781E-01  0.1187E-01  52.4936   0.0669   1068.       71.47       1.0657  0.2109E-01
    5.000  0.3200E+05  0.000   23.26      0.2630       881.4      23.671   44.7713   0.8317   0.1319   0.02350  0.6620E-01  0.1179E-01  49.9780   0.1097   1060.       116.3       1.0367  0.1972E-01
    7.000  0.3200E+05  0.000   22.65      0.2609       874.4      23.642   44.4201   0.8326   0.1813   0.03290  0.6446E-01  0.1170E-01  47.4765   0.1509   1050.       158.5       1.0056  0.1883E-01
    9.000  0.3200E+05  0.000   22.00      0.2583       865.6      23.606   43.9779   0.8338   0.2287   0.04230  0.6261E-01  0.1158E-01  44.9983   0.1907   1038.       198.0       0.9729  0.1811E-01
   11.000  0.3200E+05  0.000   21.30      0.2550       854.4      23.560   43.4204   0.8352   0.2743   0.05169  0.6064E-01  0.1143E-01  42.5417   0.2291   1023.       234.3       0.9382  0.1743E-01
   13.000  0.3200E+05  0.000   20.57      0.2511       841.4      23.507   42.7680   0.8369   0.3178   0.06109  0.5855E-01  0.1125E-01  40.1054   0.2660   1005.       267.4       0.9016  0.1706E-01
   15.000  0.3200E+05  0.000   19.81      0.2468       826.9      23.448   42.0455   0.8388   0.3594   0.07049  0.5640E-01  0.1106E-01  37.7133   0.3015   985.9       297.2       0.8644  0.1684E-01
   17.000  0.3200E+05  0.000   19.04      0.2420       810.9      23.382   41.2451   0.8408   0.3991   0.07989  0.5419E-01  0.1085E-01  35.3699   0.3356   964.4       323.6       0.8264  0.1664E-01
   19.000  0.3200E+05  0.000   18.24      0.2367       793.3      23.310   40.3625   0.8431   0.4369   0.08929  0.5192E-01  0.1061E-01  33.0757   0.3684   940.8       346.6       0.7879  0.1646E-01
   21.000  0.3200E+05  0.000   17.42      0.2309       773.9      23.230   39.3935   0.8456   0.4728   0.09869  0.4959E-01  0.1035E-01  30.8313   0.3998   915.1       365.9       0.7487  0.1631E-01

    1.000  0.3250E+05  0.000   25.17      0.2750       936.0      24.149   46.7818   0.8286   0.0269   0.00463  0.6945E-01  0.1195E-01  55.9611   0.0223   1130.       25.17       1.0951  0.2260E-01
    3.000  0.3250E+05  0.000   24.64      0.2738       931.7      24.131   46.5696   0.8291   0.0793   0.01388  0.6799E-01  0.1190E-01  53.4323   0.0658   1124.       73.92       1.0687  0.2094E-01
    5.000  0.3250E+05  0.000   24.07      0.2720       925.8      24.107   46.2801   0.8298   0.1300   0.02314  0.6641E-01  0.1182E-01  50.9165   0.1079   1116.       120.3       1.0401  0.1956E-01
    7.000  0.3250E+05  0.000   23.44      0.2699       918.6      24.078   45.9246   0.8307   0.1786   0.03239  0.6469E-01  0.1173E-01  48.4131   0.1484   1106.       164.1       1.0096  0.1868E-01
    9.000  0.3250E+05  0.000   22.78      0.2672       909.5      24.042   45.4778   0.8319   0.2255   0.04164  0.6287E-01  0.1161E-01  45.9322   0.1876   1093.       205.1       0.9773  0.1797E-01
   11.000  0.3250E+05  0.000   22.08      0.2639       898.2      23.996   44.9177   0.8333   0.2705   0.05090  0.6094E-01  0.1147E-01  43.4735   0.2254   1078.       242.9       0.9433  0.1727E-01
   13.000  0.3250E+05  0.000   21.34      0.2600       884.8      23.942   44.2603   0.8350   0.3136   0.06015  0.5889E-01  0.1130E-01  41.0329   0.2618   1060.       277.4       0.9073  0.1690E-01
   15.000  0.3250E+05  0.000   20.57      0.2556       870.0      23.882   43.5310   0.8369   0.3547   0.06941  0.5677E-01  0.1111E-01  38.6342   0.2969   1040.       308.6       0.8706  0.1669E-01
   17.000  0.3250E+05  0.000   19.79      0.2508       853.6      23.816   42.7241   0.8389   0.3940   0.07866  0.5460E-01  0.1090E-01  36.2833   0.3306   1018.       336.4       0.8333  0.1649E-01
   19.000  0.3250E+05  0.000   18.98      0.2455       835.6      23.743   41.8355   0.8412   0.4315   0.08792  0.5237E-01  0.1067E-01  33.9807   0.3630   993.3       360.6       0.7953  0.1632E-01
   21.000  0.3250E+05  0.000   18.15      0.2397       815.8      23.663   40.8608   0.8437   0.4672   0.09717  0.5008E-01  0.1042E-01  31.7270   0.3942   966.9       381.1       0.7567  0.1616E-01

    1.000  0.3300E+05  0.000   26.01      0.2843       982.4      24.588   48.3296   0.8267   0.0265   0.00456  0.6960E-01  0.1198E-01  56.9027   0.0219   1188.       26.01       1.0977  0.2243E-01
    3.000  0.3300E+05  0.000   25.47      0.2830       977.9      24.570   48.1151   0.8272   0.0781   0.01367  0.6817E-01  0.1193E-01  54.3744   0.0646   1182.       76.41       1.0717  0.2078E-01
    5.000  0.3300E+05  0.000   24.89      0.2812       971.9      24.546   47.8230   0.8279   0.1280   0.02279  0.6662E-01  0.1185E-01  51.8586   0.1060   1174.       124.4       1.0436  0.1942E-01
    7.000  0.3300E+05  0.000   24.26      0.2791       964.5      24.517   47.4630   0.8288   0.1761   0.03190  0.6493E-01  0.1176E-01  49.3532   0.1459   1164.       169.8       1.0136  0.1854E-01
    9.000  0.3300E+05  0.000   23.59      0.2764       955.2      24.480   47.0115   0.8300   0.2223   0.04101  0.6314E-01  0.1165E-01  46.8697   0.1845   1151.       212.3       0.9818  0.1783E-01
   11.000  0.3300E+05  0.000   22.88      0.2730       943.6      24.434   46.4488   0.8314   0.2668   0.05013  0.6124E-01  0.1151E-01  44.4090   0.2218   1135.       251.7       0.9483  0.1713E-01
   13.000  0.3300E+05  0.000   22.13      0.2691       929.9      24.379   45.7862   0.8331   0.3094   0.05924  0.5923E-01  0.1134E-01  41.9641   0.2577   1116.       287.7       0.9130  0.1676E-01
   15.000  0.3300E+05  0.000   21.35      0.2647       914.7      24.319   45.0498   0.8349   0.3501   0.06836  0.5714E-01  0.1116E-01  39.5591   0.2923   1096.       320.3       0.8768  0.1654E-01
   17.000  0.3300E+05  0.000   20.55      0.2598       897.9      24.252   44.2362   0.8370   0.3891   0.07747  0.5501E-01  0.1095E-01  37.2009   0.3257   1073.       349.4       0.8400  0.1635E-01
   19.000  0.3300E+05  0.000   19.73      0.2545       879.5      24.179   43.3411   0.8392   0.4263   0.08658  0.5281E-01  0.1073E-01  34.8901   0.3578   1048.       374.9       0.8026  0.1617E-01
   21.000  0.3300E+05  0.000   18.89      0.2486       859.2      24.099   42.3604   0.8417   0.4617   0.09570  0.5056E-01  0.1048E-01  32.6273   0.3886   1021.       396.7       0.7646  0.1602E-01

    1.000  0.3350E+05  0.000   26.86      0.2937       1030.      25.030   49.9122   0.8248   0.0261   0.00449  0.6977E-01  0.1201E-01  57.8479   0.0215   1249.       26.86       1.1003  0.2227E-01
    3.000  0.3350E+05  0.000   26.32      0.2924       1026.      25.013   49.6954   0.8253   0.0770   0.01347  0.6836E-01  0.1196E-01  55.3201   0.0635   1243.       78.96       1.0747  0.2063E-01
    5.000  0.3350E+05  0.000   25.73      0.2908       1020.      24.990   49.4256   0.8260   0.1261   0.02245  0.6682E-01  0.1189E-01  52.7998   0.1041   1235.       128.6       1.0471  0.1954E-01
    7.000  0.3350E+05  0.000   25.09      0.2885       1012.      24.958   49.0362   0.8269   0.1736   0.03142  0.6517E-01  0.1180E-01  50.2970   0.1435   1224.       175.6       1.0175  0.1840E-01
    9.000  0.3350E+05  0.000   24.41      0.2858       1002.      24.921   48.5799   0.8280   0.2192   0.04040  0.6341E-01  0.1169E-01  47.8109   0.1815   1211.       219.7       0.9863  0.1769E-01
   11.000  0.3350E+05  0.000   23.70      0.2824       990.6      24.875   48.0143   0.8294   0.2631   0.04938  0.6155E-01  0.1155E-01  45.3483   0.2183   1194.       260.7       0.9534  0.1699E-01
   13.000  0.3350E+05  0.000   22.93      0.2784       976.7      24.820   47.3464   0.8311   0.3053   0.05836  0.5956E-01  0.1139E-01  42.8994   0.2537   1175.       298.1       0.9186  0.1661E-01
   15.000  0.3350E+05  0.000   22.14      0.2740       961.1      24.759   46.6027   0.8330   0.3456   0.06734  0.5751E-01  0.1121E-01  40.4880   0.2879   1154.       332.2       0.8829  0.1640E-01
   17.000  0.3350E+05  0.000   21.33      0.2691       943.9      24.692   45.7820   0.8350   0.3842   0.07631  0.5541E-01  0.1100E-01  38.1227   0.3208   1130.       362.7       0.8467  0.1620E-01
   19.000  0.3350E+05  0.000   20.50      0.2637       925.0      24.618   44.8803   0.8372   0.4211   0.08529  0.5325E-01  0.1078E-01  35.8039   0.3526   1105.       389.6       0.8098  0.1603E-01
   21.000  0.3350E+05  0.000   19.65      0.2578       904.4      24.537   43.8933   0.8397   0.4563   0.09427  0.5104E-01  0.1054E-01  33.5322   0.3832   1077.       412.7       0.7724  0.1588E-01

    1.000  0.3400E+05  0.000   27.74      0.3034       1080.      25.475   51.5304   0.8228   0.0257   0.00442  0.6993E-01  0.1205E-01  58.7966   0.0211   1313.       27.74       1.1030  0.2211E-01
    3.000  0.3400E+05  0.000   27.19      0.3021       1075.      25.458   51.3113   0.8233   0.0758   0.01327  0.6855E-01  0.1199E-01  56.2694   0.0624   1306.       81.56       1.0779  0.2049E-01
    5.000  0.3400E+05  0.000   26.58      0.3004       1070.      25.435   51.0372   0.8240   0.1243   0.02212  0.6703E-01  0.1193E-01  53.7478   0.1024   1298.       132.9       1.0506  0.1940E-01
    7.000  0.3400E+05  0.000   25.94      0.2981       1061.      25.403   50.6449   0.8250   0.1711   0.03096  0.6541E-01  0.1184E-01  51.2445   0.1411   1287.       181.6       1.0215  0.1826E-01
    9.000  0.3400E+05  0.000   25.25      0.2953       1052.      25.365   50.1836   0.8261   0.2161   0.03981  0.6367E-01  0.1173E-01  48.7560   0.1786   1273.       227.3       0.9907  0.1756E-01
   11.000  0.3400E+05  0.000   24.53      0.2920       1040.      25.319   49.6248   0.8274   0.2595   0.04865  0.6184E-01  0.1159E-01  46.2887   0.2147   1256.       269.8       0.9584  0.1700E-01
   13.000  0.3400E+05  0.000   23.76      0.2879       1025.      25.263   48.9417   0.8291   0.3012   0.05750  0.5989E-01  0.1143E-01  43.8386   0.2498   1236.       308.8       0.9242  0.1647E-01
   15.000  0.3400E+05  0.000   22.95      0.2834       1009.      25.202   48.1904   0.8310   0.3412   0.06635  0.5787E-01  0.1125E-01  41.4211   0.2835   1214.       344.3       0.8890  0.1626E-01
   17.000  0.3400E+05  0.000   22.13      0.2785       991.6      25.134   47.3624   0.8330   0.3794   0.07519  0.5580E-01  0.1106E-01  39.0488   0.3161   1190.       376.2       0.8533  0.1607E-01
   19.000  0.3400E+05  0.000   21.29      0.2731       972.3      25.059   46.4537   0.8352   0.4161   0.08404  0.5368E-01  0.1084E-01  36.7223   0.3475   1164.       404.5       0.8170  0.1589E-01
   21.000  0.3400E+05  0.000   20.43      0.2671       951.2      24.978   45.4601   0.8377   0.4510   0.09288  0.5151E-01  0.1061E-01  34.4419   0.3778   1135.       429.0       0.7801  0.1574E-01

    1.000  0.3450E+05  0.000   28.63      0.3132       1132.      25.924   53.1850   0.8208   0.0253   0.00436  0.7010E-01  0.1208E-01  59.7491   0.0208   1379.       28.63       1.1058  0.2196E-01
    3.000  0.3450E+05  0.000   28.07      0.3119       1127.      25.906   52.9638   0.8214   0.0747   0.01308  0.6874E-01  0.1203E-01  57.2225   0.0614   1372.       84.21       1.0811  0.2034E-01
    5.000  0.3450E+05  0.000   27.46      0.3103       1121.      25.883   52.6852   0.8220   0.1225   0.02179  0.6724E-01  0.1196E-01  54.6998   0.1007   1364.       137.3       1.0542  0.1927E-01
    7.000  0.3450E+05  0.000   26.81      0.3079       1112.      25.850   52.2900   0.8230   0.1687   0.03051  0.6565E-01  0.1187E-01  52.1960   0.1388   1352.       187.7       1.0256  0.1813E-01
    9.000  0.3450E+05  0.000   26.11      0.3051       1102.      25.812   51.8236   0.8241   0.2132   0.03923  0.6394E-01  0.1177E-01  49.7050   0.1757   1338.       235.0       0.9952  0.1743E-01
   11.000  0.3450E+05  0.000   25.37      0.3018       1090.      25.766   51.2595   0.8254   0.2560   0.04795  0.6214E-01  0.1164E-01  47.2346   0.2113   1321.       279.1       0.9633  0.1687E-01
   13.000  0.3450E+05  0.000   24.59      0.2977       1075.      25.709   50.5729   0.8271   0.2973   0.05667  0.6023E-01  0.1148E-01  44.7820   0.2459   1300.       319.7       0.9297  0.1634E-01
   15.000  0.3450E+05  0.000   23.78      0.2931       1059.      25.647   49.8138   0.8289   0.3368   0.06538  0.5824E-01  0.1130E-01  42.3585   0.2792   1278.       356.7       0.8950  0.1613E-01
   17.000  0.3450E+05  0.000   22.95      0.2881       1041.      25.579   48.9782   0.8309   0.3748   0.07410  0.5620E-01  0.1111E-01  39.9794   0.3114   1253.       390.1       0.8598  0.1593E-01
   19.000  0.3450E+05  0.000   22.10      0.2827       1021.      25.504   48.0622   0.8332   0.4111   0.08282  0.5411E-01  0.1090E-01  37.6452   0.3425   1226.       419.8       0.8240  0.1576E-01
   21.000  0.3450E+05  0.000   21.22      0.2767       999.7      25.422   47.0617   0.8356   0.4458   0.09154  0.5197E-01  0.1067E-01  35.3563   0.3725   1196.       445.6       0.7877  0.1561E-01

    1.000  0.3500E+05  0.000   29.53      0.3233       1185.      26.375   54.8770   0.8188   0.0249   0.00430  0.7027E-01  0.1212E-01  60.7055   0.0204   1447.       29.53       1.1087  0.2181E-01
    3.000  0.3500E+05  0.000   28.97      0.3220       1180.      26.357   54.6538   0.8193   0.0736   0.01289  0.6893E-01  0.1207E-01  58.1796   0.0603   1440.       86.91       1.0843  0.2021E-01
    5.000  0.3500E+05  0.000   28.35      0.3203       1174.      26.333   54.3706   0.8200   0.1207   0.02148  0.6746E-01  0.1200E-01  55.6556   0.0990   1432.       141.8       1.0578  0.1914E-01
    7.000  0.3500E+05  0.000   27.69      0.3181       1166.      26.303   53.9949   0.8209   0.1663   0.03008  0.6588E-01  0.1192E-01  53.1475   0.1365   1420.       193.8       1.0296  0.1824E-01
    9.000  0.3500E+05  0.000   26.99      0.3151       1155.      26.262   53.5008   0.8221   0.2103   0.03867  0.6421E-01  0.1181E-01  50.6581   0.1729   1405.       242.9       0.9997  0.1730E-01
   11.000  0.3500E+05  0.000   26.24      0.3117       1143.      26.215   52.9311   0.8234   0.2526   0.04726  0.6243E-01  0.1168E-01  48.1847   0.2080   1388.       288.6       0.9683  0.1674E-01
   13.000  0.3500E+05  0.000   25.45      0.3076       1127.      26.159   52.2410   0.8250   0.2935   0.05586  0.6056E-01  0.1153E-01  45.7297   0.2421   1367.       330.9       0.9353  0.1620E-01
   15.000  0.3500E+05  0.000   24.63      0.3030       1111.      26.096   51.4738   0.8269   0.3326   0.06445  0.5859E-01  0.1135E-01  43.3003   0.2750   1343.       369.4       0.9010  0.1600E-01
   17.000  0.3500E+05  0.000   23.78      0.2980       1092.      26.027   50.6303   0.8289   0.3702   0.07304  0.5659E-01  0.1117E-01  40.9145   0.3068   1318.       404.3       0.8663  0.1581E-01
   19.000  0.3500E+05  0.000   22.92      0.2925       1072.      25.951   49.7066   0.8311   0.4062   0.08164  0.5453E-01  0.1096E-01  38.5728   0.3376   1290.       435.4       0.8310  0.1563E-01
   21.000  0.3500E+05  0.000   22.03      0.2865       1050.      25.868   48.6989   0.8335   0.4406   0.09023  0.5242E-01  0.1073E-01  36.2757   0.3673   1260.       462.7       0.7951  0.1548E-01

